Packet number,Gyroscope X (deg/s),Gyroscope Y (deg/s),Gyroscope Z (deg/s),Accelerometer X (g),Accelerometer Y (g),Accelerometer Z (g)
0,2.62451171875,-1.46484375,1.64794921875,-0.02001953125,0.0166015625,1.0146484375,2.806,0.968,-1.594
1,2.62451171875,-1.46484375,1.64794921875,-0.02001953125,0.0166015625,1.0146484375,2.806,0.968,-1.594
2,2.38037109375,-1.8310546875,1.8310546875,-0.01953125,0.02099609375,1.013671875,2.806,0.968,-1.594
3,2.38037109375,-1.8310546875,1.8310546875,-0.01953125,0.02099609375,1.013671875,2.806,0.968,-1.594
4,2.38037109375,-1.8310546875,1.8310546875,-0.01953125,0.02099609375,1.013671875,2.806,0.968,-1.594
5,2.38037109375,-1.8310546875,1.8310546875,-0.01953125,0.02099609375,1.013671875,2.807,0.961,-1.595
6,2.13623046875,-2.13623046875,2.0751953125,-0.02392578125,0.01806640625,1.0068359375,2.807,0.961,-1.595
7,2.13623046875,-2.13623046875,2.0751953125,-0.02392578125,0.01806640625,1.0068359375,2.802,0.954,-1.604
8,2.13623046875,-2.13623046875,2.0751953125,-0.02392578125,0.01806640625,1.0068359375,2.802,0.954,-1.604
9,3.41796875,-2.50244140625,2.197265625,-0.03076171875,0.01416015625,1.0009765625,2.802,0.947,-1.614
10,3.41796875,-2.50244140625,2.197265625,-0.03076171875,0.01416015625,1.0009765625,2.802,0.947,-1.614
11,3.41796875,-2.50244140625,2.197265625,-0.03076171875,0.01416015625,1.0009765625,2.802,0.947,-1.614
12,3.96728515625,-3.173828125,1.89208984375,-0.03173828125,0.01025390625,0.9892578125,2.806,0.939,-1.61
13,3.96728515625,-3.173828125,1.89208984375,-0.03173828125,0.01025390625,0.9892578125,2.806,0.939,-1.61
14,3.96728515625,-3.173828125,1.89208984375,-0.03173828125,0.01025390625,0.9892578125,2.807,0.935,-1.61
15,5.37109375,-2.25830078125,1.46484375,-0.03271484375,0.00927734375,0.98681640625,2.807,0.935,-1.61
16,5.37109375,-2.25830078125,1.46484375,-0.03271484375,0.00927734375,0.98681640625,2.807,0.935,-1.61
17,5.37109375,-2.25830078125,1.46484375,-0.03271484375,0.00927734375,0.98681640625,2.807,0.935,-1.61
18,5.37109375,-2.25830078125,1.46484375,-0.03271484375,0.00927734375,0.98681640625,2.807,0.935,-1.61
19,7.2021484375,-1.89208984375,1.28173828125,-0.02587890625,0.0146484375,0.98876953125,2.807,0.935,-1.61
20,7.2021484375,-1.89208984375,1.28173828125,-0.02587890625,0.0146484375,0.98876953125,2.807,0.935,-1.61
21,7.2021484375,-1.89208984375,1.28173828125,-0.02587890625,0.0146484375,0.98876953125,2.807,0.935,-1.61
22,7.2021484375,-1.89208984375,1.28173828125,-0.02587890625,0.0146484375,0.98876953125,2.807,0.935,-1.61
23,6.28662109375,-1.52587890625,0.0,-0.021484375,0.0166015625,0.9775390625,2.796,0.922,-1.624
24,6.28662109375,-1.52587890625,0.0,-0.021484375,0.0166015625,0.9775390625,2.796,0.922,-1.624
25,6.28662109375,-1.52587890625,0.0,-0.021484375,0.0166015625,0.9775390625,2.793,0.921,-1.629
26,5.06591796875,-0.79345703125,-0.732421875,-0.02099609375,0.02294921875,0.98046875,2.793,0.921,-1.629
27,5.06591796875,-0.79345703125,-0.732421875,-0.02099609375,0.02294921875,0.98046875,2.79,0.917,-1.633
28,5.06591796875,-0.79345703125,-0.732421875,-0.02099609375,0.02294921875,0.98046875,2.79,0.917,-1.633
29,5.67626953125,-0.8544921875,-0.9765625,-0.02099609375,0.0263671875,0.9853515625,2.79,0.917,-1.633
30,5.67626953125,-0.8544921875,-0.9765625,-0.02099609375,0.0263671875,0.9853515625,2.788,0.909,-1.635
31,5.67626953125,-0.8544921875,-0.9765625,-0.02099609375,0.0263671875,0.9853515625,2.788,0.909,-1.635
32,4.150390625,-1.708984375,-0.67138671875,-0.0224609375,0.0224609375,0.978515625,2.789,0.902,-1.635
33,4.150390625,-1.708984375,-0.67138671875,-0.0224609375,0.0224609375,0.978515625,2.789,0.902,-1.635
34,-91.61376953125,16.4794921875,-9.21630859375,-0.0771484375,0.169921875,1.49609375,2.787,0.901,-1.637
35,-91.61376953125,16.4794921875,-9.21630859375,-0.0771484375,0.169921875,1.49609375,2.359,-0.356,-1.995
36,-91.61376953125,16.4794921875,-9.21630859375,-0.0771484375,0.169921875,1.49609375,2.359,-0.356,-1.995
37,-107.91015625,2.74658203125,-7.2021484375,-0.08349609375,0.12451171875,1.38330078125,2.359,-0.356,-1.995
38,-107.91015625,2.74658203125,-7.2021484375,-0.08349609375,0.12451171875,1.38330078125,2.359,-0.356,-1.995
39,-107.91015625,2.74658203125,-7.2021484375,-0.08349609375,0.12451171875,1.38330078125,2.359,-0.356,-1.995
40,-107.91015625,2.74658203125,-7.2021484375,-0.08349609375,0.12451171875,1.38330078125,2.426,-0.094,-1.967
41,-104.67529296875,10.498046875,-22.705078125,-0.1083984375,0.10400390625,1.376953125,2.426,-0.094,-1.967
42,-104.67529296875,10.498046875,-22.705078125,-0.1083984375,0.10400390625,1.376953125,2.426,-0.094,-1.967
43,-104.67529296875,10.498046875,-22.705078125,-0.1083984375,0.10400390625,1.376953125,2.426,-0.094,-1.967
44,-104.67529296875,10.498046875,-22.705078125,-0.1083984375,0.10400390625,1.376953125,2.426,-0.094,-1.967
45,-73.3642578125,23.8037109375,-25.57373046875,-0.09375,0.087890625,1.365234375,2.426,-0.094,-1.967
46,-73.3642578125,23.8037109375,-25.57373046875,-0.09375,0.087890625,1.365234375,2.476,0.197,-1.931
47,-73.3642578125,23.8037109375,-25.57373046875,-0.09375,0.087890625,1.365234375,2.476,0.197,-1.931
48,-48.64501953125,20.01953125,-21.1181640625,-0.0322265625,0.0576171875,1.294921875,2.476,0.197,-1.931
49,-48.64501953125,20.01953125,-21.1181640625,-0.0322265625,0.0576171875,1.294921875,2.476,0.197,-1.931
50,-48.64501953125,20.01953125,-21.1181640625,-0.0322265625,0.0576171875,1.294921875,2.476,0.197,-1.931
51,-49.74365234375,-2.50244140625,-15.625,-0.005859375,0.05615234375,1.13916015625,2.504,0.402,-1.899
52,-49.74365234375,-2.50244140625,-15.625,-0.005859375,0.05615234375,1.13916015625,2.504,0.402,-1.899
53,-49.74365234375,-2.50244140625,-15.625,-0.005859375,0.05615234375,1.13916015625,2.504,0.402,-1.899
54,-49.74365234375,-2.50244140625,-15.625,-0.005859375,0.05615234375,1.13916015625,2.504,0.402,-1.899
55,-65.0634765625,-14.46533203125,-6.591796875,-0.04248046875,0.0400390625,1.01025390625,2.504,0.402,-1.899
56,-65.0634765625,-14.46533203125,-6.591796875,-0.04248046875,0.0400390625,1.01025390625,2.528,0.585,-1.888
57,-65.0634765625,-14.46533203125,-6.591796875,-0.04248046875,0.0400390625,1.01025390625,2.528,0.585,-1.888
58,-65.0634765625,-14.46533203125,-6.591796875,-0.04248046875,0.0400390625,1.01025390625,2.528,0.585,-1.888
59,-70.556640625,-14.5263671875,-2.50244140625,-0.06591796875,0.013671875,1.033203125,2.528,0.585,-1.888
60,-70.556640625,-14.5263671875,-2.50244140625,-0.06591796875,0.013671875,1.033203125,2.528,0.585,-1.888
61,-70.556640625,-14.5263671875,-2.50244140625,-0.06591796875,0.013671875,1.033203125,2.53,0.751,-1.88
62,-57.31201171875,2.9296875,1.708984375,-0.0625,-0.0166015625,1.10791015625,2.53,0.751,-1.88
63,-57.31201171875,2.9296875,1.708984375,-0.0625,-0.0166015625,1.10791015625,2.53,0.751,-1.88
64,-57.31201171875,2.9296875,1.708984375,-0.0625,-0.0166015625,1.10791015625,2.53,0.751,-1.88
65,-57.31201171875,2.9296875,1.708984375,-0.0625,-0.0166015625,1.10791015625,2.53,0.751,-1.88
66,-43.39599609375,15.68603515625,1.220703125,-0.0908203125,-0.03759765625,1.109375,2.525,0.901,-1.864
67,-43.39599609375,15.68603515625,1.220703125,-0.0908203125,-0.03759765625,1.109375,2.525,0.901,-1.864
68,-43.39599609375,15.68603515625,1.220703125,-0.0908203125,-0.03759765625,1.109375,2.525,0.901,-1.864
69,-34.912109375,22.03369140625,-5.79833984375,-0.13525390625,-0.0458984375,1.1044921875,2.525,0.901,-1.864
70,-34.912109375,22.03369140625,-5.79833984375,-0.13525390625,-0.0458984375,1.1044921875,2.525,0.901,-1.864
71,-34.912109375,22.03369140625,-5.79833984375,-0.13525390625,-0.0458984375,1.1044921875,2.525,0.901,-1.864
72,-34.912109375,22.03369140625,-5.79833984375,-0.13525390625,-0.0458984375,1.1044921875,2.545,1.034,-1.821
73,-27.2216796875,31.43310546875,-15.0146484375,-0.15576171875,-0.03271484375,1.0693359375,2.545,1.034,-1.821
74,-27.2216796875,31.43310546875,-15.0146484375,-0.15576171875,-0.03271484375,1.0693359375,2.545,1.034,-1.821
75,-27.2216796875,31.43310546875,-15.0146484375,-0.15576171875,-0.03271484375,1.0693359375,2.545,1.034,-1.821
76,-32.53173828125,39.55078125,-29.052734375,-0.1513671875,-0.05615234375,1.06396484375,2.545,1.034,-1.821
77,-32.53173828125,39.55078125,-29.052734375,-0.1513671875,-0.05615234375,1.06396484375,2.588,1.132,-1.778
78,-32.53173828125,39.55078125,-29.052734375,-0.1513671875,-0.05615234375,1.06396484375,2.588,1.132,-1.778
79,-32.53173828125,39.55078125,-29.052734375,-0.1513671875,-0.05615234375,1.06396484375,2.588,1.132,-1.778
80,-44.7998046875,24.35302734375,-28.6865234375,0.00341796875,-0.19970703125,1.3076171875,2.588,1.132,-1.778
81,-44.7998046875,24.35302734375,-28.6865234375,0.00341796875,-0.19970703125,1.3076171875,2.588,1.132,-1.778
82,-44.7998046875,24.35302734375,-28.6865234375,0.00341796875,-0.19970703125,1.3076171875,2.636,1.245,-1.71
83,-33.935546875,-2.9296875,-4.21142578125,0.1171875,-0.15283203125,1.56591796875,2.636,1.245,-1.71
84,-33.935546875,-2.9296875,-4.21142578125,0.1171875,-0.15283203125,1.56591796875,2.636,1.245,-1.71
85,-33.935546875,-2.9296875,-4.21142578125,0.1171875,-0.15283203125,1.56591796875,2.636,1.245,-1.71
86,-33.935546875,-2.9296875,-4.21142578125,0.1171875,-0.15283203125,1.56591796875,2.636,1.245,-1.71
87,-18.12744140625,-3.662109375,8.9111328125,0.03515625,-0.06982421875,1.455078125,2.636,1.245,-1.71
88,-18.12744140625,-3.662109375,8.9111328125,0.03515625,-0.06982421875,1.455078125,2.661,1.362,-1.662
89,-18.12744140625,-3.662109375,8.9111328125,0.03515625,-0.06982421875,1.455078125,2.661,1.362,-1.662
90,-13.48876953125,3.23486328125,7.38525390625,-0.06640625,-0.1025390625,1.29296875,2.661,1.362,-1.662
91,-13.48876953125,3.23486328125,7.38525390625,-0.06640625,-0.1025390625,1.29296875,2.661,1.362,-1.662
92,-13.48876953125,3.23486328125,7.38525390625,-0.06640625,-0.1025390625,1.29296875,2.661,1.362,-1.662
93,-13.48876953125,3.23486328125,7.38525390625,-0.06640625,-0.1025390625,1.29296875,2.667,1.43,-1.619
94,-16.845703125,0.67138671875,-4.94384765625,-0.119140625,-0.1279296875,1.111328125,2.667,1.43,-1.619
95,-16.845703125,0.67138671875,-4.94384765625,-0.119140625,-0.1279296875,1.111328125,2.667,1.43,-1.619
96,-16.845703125,0.67138671875,-4.94384765625,-0.119140625,-0.1279296875,1.111328125,2.667,1.43,-1.619
97,-45.34912109375,25.32958984375,-14.0380859375,-0.13427734375,-0.24462890625,1.2099609375,2.667,1.43,-1.619
98,-45.34912109375,25.32958984375,-14.0380859375,-0.13427734375,-0.24462890625,1.2099609375,2.677,1.496,-1.598
99,-45.34912109375,25.32958984375,-14.0380859375,-0.13427734375,-0.24462890625,1.2099609375,2.677,1.496,-1.598
100,-45.34912109375,25.32958984375,-14.0380859375,-0.13427734375,-0.24462890625,1.2099609375,2.677,1.496,-1.598
101,-55.60302734375,20.8740234375,-13.0615234375,-0.06689453125,-0.38525390625,1.6806640625,2.677,1.496,-1.598
102,-55.60302734375,20.8740234375,-13.0615234375,-0.06689453125,-0.38525390625,1.6806640625,2.677,1.496,-1.598
103,-55.60302734375,20.8740234375,-13.0615234375,-0.06689453125,-0.38525390625,1.6806640625,2.696,1.595,-1.55
104,-7.568359375,-46.69189453125,-34.72900390625,0.03271484375,-0.318359375,1.76318359375,2.696,1.595,-1.55
105,-7.568359375,-46.69189453125,-34.72900390625,0.03271484375,-0.318359375,1.76318359375,2.696,1.595,-1.55
106,-7.568359375,-46.69189453125,-34.72900390625,0.03271484375,-0.318359375,1.76318359375,2.696,1.595,-1.55
107,-7.568359375,-46.69189453125,-34.72900390625,0.03271484375,-0.318359375,1.76318359375,2.696,1.595,-1.55
108,33.3251953125,-46.69189453125,-28.62548828125,0.046875,-0.279296875,1.48291015625,2.664,1.69,-1.541
109,33.3251953125,-46.69189453125,-28.62548828125,0.046875,-0.279296875,1.48291015625,2.664,1.69,-1.541
110,33.3251953125,-46.69189453125,-28.62548828125,0.046875,-0.279296875,1.48291015625,2.664,1.69,-1.541
111,48.33984375,-15.2587890625,-4.45556640625,-0.04736328125,-0.29443359375,1.328125,2.664,1.69,-1.541
112,48.33984375,-15.2587890625,-4.45556640625,-0.04736328125,-0.29443359375,1.328125,2.664,1.69,-1.541
113,48.33984375,-15.2587890625,-4.45556640625,-0.04736328125,-0.29443359375,1.328125,2.664,1.69,-1.541
114,48.33984375,-15.2587890625,-4.45556640625,-0.04736328125,-0.29443359375,1.328125,2.592,1.738,-1.583
115,41.93115234375,5.859375,-11.41357421875,-0.138671875,-0.2724609375,1.22705078125,2.592,1.738,-1.583
116,41.93115234375,5.859375,-11.41357421875,-0.138671875,-0.2724609375,1.22705078125,2.592,1.738,-1.583
117,41.93115234375,5.859375,-11.41357421875,-0.138671875,-0.2724609375,1.22705078125,2.592,1.738,-1.583
118,17.02880859375,29.6630859375,-21.728515625,-0.13671875,-0.33935546875,1.17919921875,2.592,1.738,-1.583
119,17.02880859375,29.6630859375,-21.728515625,-0.13671875,-0.33935546875,1.17919921875,2.555,1.736,-1.594
120,17.02880859375,29.6630859375,-21.728515625,-0.13671875,-0.33935546875,1.17919921875,2.555,1.736,-1.594
121,17.02880859375,29.6630859375,-21.728515625,-0.13671875,-0.33935546875,1.17919921875,2.555,1.736,-1.594
122,-1.220703125,54.01611328125,8.30078125,-0.10986328125,-0.4248046875,1.58642578125,2.555,1.736,-1.594
123,-1.220703125,54.01611328125,8.30078125,-0.10986328125,-0.4248046875,1.58642578125,2.555,1.736,-1.594
124,-1.220703125,54.01611328125,8.30078125,-0.10986328125,-0.4248046875,1.58642578125,2.559,1.752,-1.584
125,74.03564453125,5.67626953125,-11.41357421875,0.01123046875,-0.31396484375,1.75390625,2.559,1.752,-1.584
126,74.03564453125,5.67626953125,-11.41357421875,0.01123046875,-0.31396484375,1.75390625,2.559,1.752,-1.584
127,74.03564453125,5.67626953125,-11.41357421875,0.01123046875,-0.31396484375,1.75390625,2.559,1.752,-1.584
128,74.03564453125,5.67626953125,-11.41357421875,0.01123046875,-0.31396484375,1.75390625,2.559,1.752,-1.584
129,137.8173828125,4.21142578125,-2.3193359375,0.09326171875,-0.3388671875,1.52001953125,2.559,1.711,-1.596
130,137.8173828125,4.21142578125,-2.3193359375,0.09326171875,-0.3388671875,1.52001953125,2.559,1.711,-1.596
131,137.8173828125,4.21142578125,-2.3193359375,0.09326171875,-0.3388671875,1.52001953125,2.559,1.711,-1.596
132,164.12353515625,5.7373046875,13.85498046875,-0.03125,-0.38232421875,1.41650390625,2.559,1.711,-1.596
133,164.12353515625,5.7373046875,13.85498046875,-0.03125,-0.38232421875,1.41650390625,2.559,1.711,-1.596
134,164.12353515625,5.7373046875,13.85498046875,-0.03125,-0.38232421875,1.41650390625,2.559,1.711,-1.596
135,164.12353515625,5.7373046875,13.85498046875,-0.03125,-0.38232421875,1.41650390625,2.555,1.536,-1.672
136,182.06787109375,-4.0283203125,15.44189453125,-0.09814453125,-0.392578125,1.404296875,2.555,1.536,-1.672
137,182.06787109375,-4.0283203125,15.44189453125,-0.09814453125,-0.392578125,1.404296875,2.555,1.536,-1.672
138,182.06787109375,-4.0283203125,15.44189453125,-0.09814453125,-0.392578125,1.404296875,2.555,1.536,-1.672
139,187.92724609375,-51.513671875,7.26318359375,-0.041015625,-0.3427734375,1.2607421875,2.555,1.536,-1.672
140,187.92724609375,-51.513671875,7.26318359375,-0.041015625,-0.3427734375,1.2607421875,2.526,1.279,-1.744
141,187.92724609375,-51.513671875,7.26318359375,-0.041015625,-0.3427734375,1.2607421875,2.526,1.279,-1.744
142,187.92724609375,-51.513671875,7.26318359375,-0.041015625,-0.3427734375,1.2607421875,2.526,1.279,-1.744
143,177.734375,-102.23388671875,1.52587890625,0.03466796875,-0.21435546875,1.01318359375,2.526,1.279,-1.744
144,177.734375,-102.23388671875,1.52587890625,0.03466796875,-0.21435546875,1.01318359375,2.526,1.279,-1.744
145,177.734375,-102.23388671875,1.52587890625,0.03466796875,-0.21435546875,1.01318359375,2.422,0.963,-1.845
146,169.37255859375,-99.91455078125,4.08935546875,0.0458984375,-0.12158203125,0.84716796875,2.422,0.963,-1.845
147,169.37255859375,-99.91455078125,4.08935546875,0.0458984375,-0.12158203125,0.84716796875,2.422,0.963,-1.845
148,169.37255859375,-99.91455078125,4.08935546875,0.0458984375,-0.12158203125,0.84716796875,2.422,0.963,-1.845
149,169.37255859375,-99.91455078125,4.08935546875,0.0458984375,-0.12158203125,0.84716796875,2.422,0.963,-1.845
150,179.99267578125,-76.47705078125,5.9814453125,-0.03271484375,-0.08984375,0.7734375,2.422,0.963,-1.845
151,179.99267578125,-76.47705078125,5.9814453125,-0.03271484375,-0.08984375,0.7734375,2.223,0.553,-1.986
152,179.99267578125,-76.47705078125,5.9814453125,-0.03271484375,-0.08984375,0.7734375,2.223,0.553,-1.986
153,179.99267578125,-76.47705078125,5.9814453125,-0.03271484375,-0.08984375,0.7734375,2.223,0.553,-1.986
154,198.486328125,-56.33544921875,-1.15966796875,-0.08349609375,-0.06982421875,0.75390625,2.223,0.553,-1.986
155,198.486328125,-56.33544921875,-1.15966796875,-0.08349609375,-0.06982421875,0.75390625,2.223,0.553,-1.986
156,198.486328125,-56.33544921875,-1.15966796875,-0.08349609375,-0.06982421875,0.75390625,2.043,0.173,-2.064
157,213.7451171875,-54.50439453125,-7.38525390625,-0.05322265625,-0.04248046875,0.701171875,2.043,0.173,-2.064
158,213.7451171875,-54.50439453125,-7.38525390625,-0.05322265625,-0.04248046875,0.701171875,2.043,0.173,-2.064
159,213.7451171875,-54.50439453125,-7.38525390625,-0.05322265625,-0.04248046875,0.701171875,2.043,0.173,-2.064
160,206.84814453125,-66.10107421875,-5.67626953125,-0.0361328125,0.03125,0.49658203125,2.043,0.173,-2.064
161,206.84814453125,-66.10107421875,-5.67626953125,-0.0361328125,0.03125,0.49658203125,1.873,-0.249,-2.135
162,206.84814453125,-66.10107421875,-5.67626953125,-0.0361328125,0.03125,0.49658203125,1.873,-0.249,-2.135
163,206.84814453125,-66.10107421875,-5.67626953125,-0.0361328125,0.03125,0.49658203125,1.873,-0.249,-2.135
164,171.69189453125,-72.509765625,1.03759765625,-0.09228515625,0.14306640625,0.2939453125,1.873,-0.249,-2.135
165,171.69189453125,-72.509765625,1.03759765625,-0.09228515625,0.14306640625,0.2939453125,1.873,-0.249,-2.135
166,171.69189453125,-72.509765625,1.03759765625,-0.09228515625,0.14306640625,0.2939453125,1.686,-0.691,-2.166
167,141.9677734375,-65.73486328125,-2.9296875,-0.15478515625,0.2705078125,0.2138671875,1.686,-0.691,-2.166
168,141.9677734375,-65.73486328125,-2.9296875,-0.15478515625,0.2705078125,0.2138671875,1.686,-0.691,-2.166
169,141.9677734375,-65.73486328125,-2.9296875,-0.15478515625,0.2705078125,0.2138671875,1.686,-0.691,-2.166
170,141.9677734375,-65.73486328125,-2.9296875,-0.15478515625,0.2705078125,0.2138671875,1.686,-0.691,-2.166
171,129.0283203125,-47.79052734375,-9.70458984375,-0.18017578125,0.37109375,0.173828125,1.513,-1.088,-2.154
172,129.0283203125,-47.79052734375,-9.70458984375,-0.18017578125,0.37109375,0.173828125,1.513,-1.088,-2.154
173,129.0283203125,-47.79052734375,-9.70458984375,-0.18017578125,0.37109375,0.173828125,1.513,-1.088,-2.154
174,121.337890625,-21.91162109375,-18.61572265625,-0.17724609375,0.46923828125,0.14501953125,1.513,-1.088,-2.154
175,121.337890625,-21.91162109375,-18.61572265625,-0.17724609375,0.46923828125,0.14501953125,1.513,-1.088,-2.154
176,121.337890625,-21.91162109375,-18.61572265625,-0.17724609375,0.46923828125,0.14501953125,1.513,-1.088,-2.154
177,121.337890625,-21.91162109375,-18.61572265625,-0.17724609375,0.46923828125,0.14501953125,1.329,-1.491,-2.112
178,105.77392578125,-2.74658203125,-20.56884765625,-0.13427734375,0.53662109375,0.13525390625,1.329,-1.491,-2.112
179,105.77392578125,-2.74658203125,-20.56884765625,-0.13427734375,0.53662109375,0.13525390625,1.329,-1.491,-2.112
180,105.77392578125,-2.74658203125,-20.56884765625,-0.13427734375,0.53662109375,0.13525390625,1.329,-1.491,-2.112
181,89.84375,3.47900390625,-17.333984375,-0.10546875,0.576171875,0.14453125,1.329,-1.491,-2.112
182,89.84375,3.47900390625,-17.333984375,-0.10546875,0.576171875,0.14453125,1.245,-1.78,-2.04
183,89.84375,3.47900390625,-17.333984375,-0.10546875,0.576171875,0.14453125,1.245,-1.78,-2.04
184,89.84375,3.47900390625,-17.333984375,-0.10546875,0.576171875,0.14453125,1.245,-1.78,-2.04
185,72.1435546875,2.62451171875,-16.90673828125,-0.103515625,0.59912109375,0.17578125,1.245,-1.78,-2.04
186,72.1435546875,2.62451171875,-16.90673828125,-0.103515625,0.59912109375,0.17578125,1.245,-1.78,-2.04
187,72.1435546875,2.62451171875,-16.90673828125,-0.103515625,0.59912109375,0.17578125,1.2,-2.023,-1.977
188,57.4951171875,-7.62939453125,-14.404296875,-0.0869140625,0.615234375,0.1826171875,1.2,-2.023,-1.977
189,57.4951171875,-7.62939453125,-14.404296875,-0.0869140625,0.615234375,0.1826171875,1.2,-2.023,-1.977
190,57.4951171875,-7.62939453125,-14.404296875,-0.0869140625,0.615234375,0.1826171875,1.2,-2.023,-1.977
191,40.10009765625,-20.44677734375,-11.1083984375,-0.09765625,0.6279296875,0.14599609375,1.2,-2.023,-1.977
192,40.10009765625,-20.44677734375,-11.1083984375,-0.09765625,0.6279296875,0.14599609375,1.163,-2.207,-1.914
193,40.10009765625,-20.44677734375,-11.1083984375,-0.09765625,0.6279296875,0.14599609375,1.163,-2.207,-1.914
194,40.10009765625,-20.44677734375,-11.1083984375,-0.09765625,0.6279296875,0.14599609375,1.163,-2.207,-1.914
195,26.4892578125,-30.57861328125,-4.57763671875,-0.1337890625,0.66650390625,0.0947265625,1.163,-2.207,-1.914
196,26.4892578125,-30.57861328125,-4.57763671875,-0.1337890625,0.66650390625,0.0947265625,1.163,-2.207,-1.914
197,26.4892578125,-30.57861328125,-4.57763671875,-0.1337890625,0.66650390625,0.0947265625,1.118,-2.345,-1.893
198,20.01953125,-21.91162109375,-2.13623046875,-0.1572265625,0.71142578125,0.0498046875,1.118,-2.345,-1.893
199,20.01953125,-21.91162109375,-2.13623046875,-0.1572265625,0.71142578125,0.0498046875,1.118,-2.345,-1.893
200,20.01953125,-21.91162109375,-2.13623046875,-0.1572265625,0.71142578125,0.0498046875,1.118,-2.345,-1.893
201,20.01953125,-21.91162109375,-2.13623046875,-0.1572265625,0.71142578125,0.0498046875,1.118,-2.345,-1.893
202,2.99072265625,-2.01416015625,0.42724609375,-0.18359375,0.72509765625,0.0400390625,1.066,-2.433,-1.868
203,2.99072265625,-2.01416015625,0.42724609375,-0.18359375,0.72509765625,0.0400390625,1.066,-2.433,-1.868
204,2.99072265625,-2.01416015625,0.42724609375,-0.18359375,0.72509765625,0.0400390625,1.066,-2.433,-1.868
205,-9.033203125,10.8642578125,2.01416015625,-0.212890625,0.720703125,0.0576171875,1.066,-2.433,-1.868
206,-9.033203125,10.8642578125,2.01416015625,-0.212890625,0.720703125,0.0576171875,1.066,-2.433,-1.868
207,-9.033203125,10.8642578125,2.01416015625,-0.212890625,0.720703125,0.0576171875,1.049,-2.486,-1.859
208,-9.033203125,10.8642578125,2.01416015625,-0.212890625,0.720703125,0.0576171875,1.049,-2.486,-1.859
209,-18.49365234375,12.87841796875,-2.13623046875,-0.228515625,0.71337890625,0.087890625,1.049,-2.486,-1.859
210,-18.49365234375,12.87841796875,-2.13623046875,-0.228515625,0.71337890625,0.087890625,1.049,-2.486,-1.859
211,-18.49365234375,12.87841796875,-2.13623046875,-0.228515625,0.71337890625,0.087890625,1.049,-2.486,-1.859
212,-26.30615234375,22.5830078125,-5.4931640625,-0.21826171875,0.689453125,0.12158203125,1.052,-2.503,-1.834
213,-26.30615234375,22.5830078125,-5.4931640625,-0.21826171875,0.689453125,0.12158203125,1.052,-2.503,-1.834
214,-26.30615234375,22.5830078125,-5.4931640625,-0.21826171875,0.689453125,0.12158203125,1.052,-2.503,-1.834
215,-26.30615234375,22.5830078125,-5.4931640625,-0.21826171875,0.689453125,0.12158203125,1.052,-2.503,-1.834
216,-33.63037109375,30.57861328125,-6.40869140625,-0.16455078125,0.658203125,0.15087890625,1.052,-2.503,-1.834
217,-33.63037109375,30.57861328125,-6.40869140625,-0.16455078125,0.658203125,0.15087890625,1.078,-2.488,-1.83
218,-33.63037109375,30.57861328125,-6.40869140625,-0.16455078125,0.658203125,0.15087890625,1.078,-2.488,-1.83
219,-41.56494140625,43.15185546875,-2.62451171875,-0.126953125,0.625,0.1845703125,1.078,-2.488,-1.83
220,-41.56494140625,43.15185546875,-2.62451171875,-0.126953125,0.625,0.1845703125,1.078,-2.488,-1.83
221,-41.56494140625,43.15185546875,-2.62451171875,-0.126953125,0.625,0.1845703125,1.078,-2.488,-1.83
222,-54.6875,46.20361328125,0.3662109375,-0.15771484375,0.61376953125,0.22119140625,1.078,-2.488,-1.83
223,-54.6875,46.20361328125,0.3662109375,-0.15771484375,0.61376953125,0.22119140625,1.164,-2.431,-1.821
224,-54.6875,46.20361328125,0.3662109375,-0.15771484375,0.61376953125,0.22119140625,1.164,-2.431,-1.821
225,-54.6875,46.20361328125,0.3662109375,-0.15771484375,0.61376953125,0.22119140625,1.164,-2.431,-1.821
226,-68.603515625,40.6494140625,2.9296875,-0.177734375,0.58935546875,0.263671875,1.164,-2.431,-1.821
227,-68.603515625,40.6494140625,2.9296875,-0.177734375,0.58935546875,0.263671875,1.164,-2.431,-1.821
228,-68.603515625,40.6494140625,2.9296875,-0.177734375,0.58935546875,0.263671875,1.238,-2.338,-1.835
229,-76.2939453125,47.79052734375,0.79345703125,-0.19482421875,0.56689453125,0.32763671875,1.238,-2.338,-1.835
230,-76.2939453125,47.79052734375,0.79345703125,-0.19482421875,0.56689453125,0.32763671875,1.238,-2.338,-1.835
231,-76.2939453125,47.79052734375,0.79345703125,-0.19482421875,0.56689453125,0.32763671875,1.238,-2.338,-1.835
232,-76.2939453125,47.79052734375,0.79345703125,-0.19482421875,0.56689453125,0.32763671875,1.238,-2.338,-1.835
233,-73.66943359375,52.18505859375,-3.2958984375,-0.1484375,0.51416015625,0.40234375,1.331,-2.225,-1.84
234,-73.66943359375,52.18505859375,-3.2958984375,-0.1484375,0.51416015625,0.40234375,1.331,-2.225,-1.84
235,-73.66943359375,52.18505859375,-3.2958984375,-0.1484375,0.51416015625,0.40234375,1.331,-2.225,-1.84
236,-69.88525390625,45.7763671875,-0.91552734375,-0.11279296875,0.47119140625,0.43994140625,1.331,-2.225,-1.84
237,-69.88525390625,45.7763671875,-0.91552734375,-0.11279296875,0.47119140625,0.43994140625,1.331,-2.225,-1.84
238,-69.88525390625,45.7763671875,-0.91552734375,-0.11279296875,0.47119140625,0.43994140625,1.448,-2.086,-1.844
239,-74.21875,33.50830078125,2.86865234375,-0.095703125,0.4453125,0.466796875,1.448,-2.086,-1.844
240,-74.21875,33.50830078125,2.86865234375,-0.095703125,0.4453125,0.466796875,1.448,-2.086,-1.844
241,-74.21875,33.50830078125,2.86865234375,-0.095703125,0.4453125,0.466796875,1.448,-2.086,-1.844
242,-74.21875,33.50830078125,2.86865234375,-0.095703125,0.4453125,0.466796875,1.448,-2.086,-1.844
243,-78.7353515625,31.79931640625,7.38525390625,-0.12890625,0.470703125,0.537109375,1.559,-1.951,-1.866
244,-78.7353515625,31.79931640625,7.38525390625,-0.12890625,0.470703125,0.537109375,1.559,-1.951,-1.866
245,-78.7353515625,31.79931640625,7.38525390625,-0.12890625,0.470703125,0.537109375,1.559,-1.951,-1.866
246,-78.7353515625,31.79931640625,7.38525390625,-0.12890625,0.470703125,0.537109375,1.559,-1.951,-1.866
247,-79.28466796875,36.2548828125,4.5166015625,-0.14306640625,0.43505859375,0.56884765625,1.559,-1.951,-1.866
248,-79.28466796875,36.2548828125,4.5166015625,-0.14306640625,0.43505859375,0.56884765625,1.671,-1.8,-1.882
249,-79.28466796875,36.2548828125,4.5166015625,-0.14306640625,0.43505859375,0.56884765625,1.671,-1.8,-1.882
250,-85.63232421875,24.84130859375,3.47900390625,-0.13037109375,0.376953125,0.572265625,1.671,-1.8,-1.882
251,-85.63232421875,24.84130859375,3.47900390625,-0.13037109375,0.376953125,0.572265625,1.671,-1.8,-1.882
252,-85.63232421875,24.84130859375,3.47900390625,-0.13037109375,0.376953125,0.572265625,1.671,-1.8,-1.882
253,-95.64208984375,15.80810546875,4.82177734375,-0.12890625,0.35009765625,0.60693359375,1.671,-1.8,-1.882
254,-95.64208984375,15.80810546875,4.82177734375,-0.12890625,0.35009765625,0.60693359375,1.792,-1.613,-1.894
255,-95.64208984375,15.80810546875,4.82177734375,-0.12890625,0.35009765625,0.60693359375,1.792,-1.613,-1.894
256,-95.64208984375,15.80810546875,4.82177734375,-0.12890625,0.35009765625,0.60693359375,1.792,-1.613,-1.894
257,-98.32763671875,23.25439453125,6.77490234375,-0.12353515625,0.35107421875,0.71826171875,1.792,-1.613,-1.894
258,-98.32763671875,23.25439453125,6.77490234375,-0.12353515625,0.35107421875,0.71826171875,1.792,-1.613,-1.894
259,-98.32763671875,23.25439453125,6.77490234375,-0.12353515625,0.35107421875,0.71826171875,1.869,-1.445,-1.927
260,-95.703125,34.423828125,11.04736328125,-0.1328125,0.3154296875,0.7978515625,1.869,-1.445,-1.927
261,-95.703125,34.423828125,11.04736328125,-0.1328125,0.3154296875,0.7978515625,1.869,-1.445,-1.927
262,-95.703125,34.423828125,11.04736328125,-0.1328125,0.3154296875,0.7978515625,1.869,-1.445,-1.927
263,-95.703125,34.423828125,11.04736328125,-0.1328125,0.3154296875,0.7978515625,1.869,-1.445,-1.927
264,-109.92431640625,6.89697265625,11.8408203125,-0.1513671875,0.20947265625,0.7900390625,1.947,-1.259,-1.951
265,-109.92431640625,6.89697265625,11.8408203125,-0.1513671875,0.20947265625,0.7900390625,1.947,-1.259,-1.951
266,-109.92431640625,6.89697265625,11.8408203125,-0.1513671875,0.20947265625,0.7900390625,1.947,-1.259,-1.951
267,-128.5400390625,-25.93994140625,9.09423828125,-0.19970703125,0.18701171875,0.76318359375,1.947,-1.259,-1.951
268,-128.5400390625,-25.93994140625,9.09423828125,-0.19970703125,0.18701171875,0.76318359375,1.947,-1.259,-1.951
269,-128.5400390625,-25.93994140625,9.09423828125,-0.19970703125,0.18701171875,0.76318359375,2.002,-1.046,-1.976
270,-128.5400390625,-25.93994140625,9.09423828125,-0.19970703125,0.18701171875,0.76318359375,2.002,-1.046,-1.976
271,-127.99072265625,-7.14111328125,9.6435546875,-0.2041015625,0.18115234375,0.87939453125,2.002,-1.046,-1.976
272,-127.99072265625,-7.14111328125,9.6435546875,-0.2041015625,0.18115234375,0.87939453125,2.002,-1.046,-1.976
273,-127.99072265625,-7.14111328125,9.6435546875,-0.2041015625,0.18115234375,0.87939453125,2.002,-1.046,-1.976
274,-96.5576171875,48.88916015625,7.568359375,-0.2099609375,0.1240234375,1.0068359375,2.036,-0.822,-2.017
275,-96.5576171875,48.88916015625,7.568359375,-0.2099609375,0.1240234375,1.0068359375,2.036,-0.822,-2.017
276,-96.5576171875,48.88916015625,7.568359375,-0.2099609375,0.1240234375,1.0068359375,2.036,-0.822,-2.017
277,-96.5576171875,48.88916015625,7.568359375,-0.2099609375,0.1240234375,1.0068359375,2.036,-0.822,-2.017
278,-90.576171875,62.6220703125,2.44140625,-0.1455078125,0.01806640625,1.08984375,2.036,-0.822,-2.017
279,-90.576171875,62.6220703125,2.44140625,-0.1455078125,0.01806640625,1.08984375,2.036,-0.822,-2.017
280,-90.576171875,62.6220703125,2.44140625,-0.1455078125,0.01806640625,1.08984375,2.143,-0.569,-2.023
281,-101.62353515625,34.48486328125,0.3662109375,-0.1162109375,0.0107421875,1.19091796875,2.143,-0.569,-2.023
282,-101.62353515625,34.48486328125,0.3662109375,-0.1162109375,0.0107421875,1.19091796875,2.143,-0.569,-2.023
283,-101.62353515625,34.48486328125,0.3662109375,-0.1162109375,0.0107421875,1.19091796875,2.143,-0.569,-2.023
284,-101.62353515625,34.48486328125,0.3662109375,-0.1162109375,0.0107421875,1.19091796875,2.143,-0.569,-2.023
285,-111.02294921875,1.8310546875,-4.45556640625,-0.087890625,0.02685546875,1.27587890625,2.246,-0.365,-1.999
286,-111.02294921875,1.8310546875,-4.45556640625,-0.087890625,0.02685546875,1.27587890625,2.246,-0.365,-1.999
287,-111.02294921875,1.8310546875,-4.45556640625,-0.087890625,0.02685546875,1.27587890625,2.246,-0.365,-1.999
288,-111.02294921875,1.8310546875,-4.45556640625,-0.087890625,0.02685546875,1.27587890625,2.246,-0.365,-1.999
289,-98.876953125,3.41796875,-3.662109375,-0.0654296875,0.03173828125,1.30322265625,2.246,-0.365,-1.999
290,-98.876953125,3.41796875,-3.662109375,-0.0654296875,0.03173828125,1.30322265625,2.323,-0.154,-1.989
291,-98.876953125,3.41796875,-3.662109375,-0.0654296875,0.03173828125,1.30322265625,2.323,-0.154,-1.989
292,-86.0595703125,22.4609375,-1.40380859375,-0.0263671875,0.00537109375,1.34619140625,2.323,-0.154,-1.989
293,-86.0595703125,22.4609375,-1.40380859375,-0.0263671875,0.00537109375,1.34619140625,2.323,-0.154,-1.989
294,-86.0595703125,22.4609375,-1.40380859375,-0.0263671875,0.00537109375,1.34619140625,2.323,-0.154,-1.989
295,-71.6552734375,30.517578125,4.45556640625,0.0029296875,0.0263671875,1.435546875,2.323,-0.154,-1.989
296,-71.6552734375,30.517578125,4.45556640625,0.0029296875,0.0263671875,1.435546875,2.41,0.083,-1.953
297,-71.6552734375,30.517578125,4.45556640625,0.0029296875,0.0263671875,1.435546875,2.41,0.083,-1.953
298,-71.6552734375,30.517578125,4.45556640625,0.0029296875,0.0263671875,1.435546875,2.41,0.083,-1.953
299,-61.82861328125,25.5126953125,6.89697265625,0.02294921875,0.05712890625,1.48828125,2.41,0.083,-1.953
300,-61.82861328125,25.5126953125,6.89697265625,0.02294921875,0.05712890625,1.48828125,2.41,0.083,-1.953
301,-61.82861328125,25.5126953125,6.89697265625,0.02294921875,0.05712890625,1.48828125,2.41,0.083,-1.953
302,-61.82861328125,25.5126953125,6.89697265625,0.02294921875,0.05712890625,1.48828125,2.41,0.083,-1.953
303,-56.94580078125,6.89697265625,8.7890625,0.01220703125,0.07080078125,1.505859375,2.41,0.083,-1.953
304,-56.94580078125,6.89697265625,8.7890625,0.01220703125,0.07080078125,1.505859375,2.41,0.083,-1.953
305,-56.94580078125,6.89697265625,8.7890625,0.01220703125,0.07080078125,1.505859375,2.41,0.083,-1.953
306,-52.18505859375,-1.46484375,10.19287109375,0.03857421875,0.080078125,1.48779296875,2.41,0.083,-1.953
307,-52.18505859375,-1.46484375,10.19287109375,0.03857421875,0.080078125,1.48779296875,2.552,0.41,-1.891
308,-52.18505859375,-1.46484375,10.19287109375,0.03857421875,0.080078125,1.48779296875,2.552,0.41,-1.891
309,-52.18505859375,-1.46484375,10.19287109375,0.03857421875,0.080078125,1.48779296875,2.552,0.41,-1.891
310,-43.5791015625,-4.57763671875,15.380859375,0.052734375,0.1025390625,1.52392578125,2.552,0.41,-1.891
311,-43.5791015625,-4.57763671875,15.380859375,0.052734375,0.1025390625,1.52392578125,2.552,0.41,-1.891
312,-43.5791015625,-4.57763671875,15.380859375,0.052734375,0.1025390625,1.52392578125,2.595,0.507,-1.862
313,-43.5791015625,-4.57763671875,15.380859375,0.052734375,0.1025390625,1.52392578125,2.595,0.507,-1.862
314,-35.33935546875,-7.26318359375,19.775390625,0.009765625,0.0859375,1.53076171875,2.595,0.507,-1.862
315,-35.33935546875,-7.26318359375,19.775390625,0.009765625,0.0859375,1.53076171875,2.595,0.507,-1.862
316,-35.33935546875,-7.26318359375,19.775390625,0.009765625,0.0859375,1.53076171875,2.595,0.507,-1.862
317,-22.39990234375,-9.21630859375,22.94921875,-0.06103515625,0.0673828125,1.50830078125,2.62,0.577,-1.826
318,-22.39990234375,-9.21630859375,22.94921875,-0.06103515625,0.0673828125,1.50830078125,2.62,0.577,-1.826
319,-22.39990234375,-9.21630859375,22.94921875,-0.06103515625,0.0673828125,1.50830078125,2.62,0.577,-1.826
320,-22.39990234375,-9.21630859375,22.94921875,-0.06103515625,0.0673828125,1.50830078125,2.62,0.577,-1.826
321,-10.19287109375,-4.45556640625,22.5830078125,-0.1357421875,0.0419921875,1.44580078125,2.62,0.577,-1.826
322,-10.19287109375,-4.45556640625,22.5830078125,-0.1357421875,0.0419921875,1.44580078125,2.63,0.619,-1.817
323,-10.19287109375,-4.45556640625,22.5830078125,-0.1357421875,0.0419921875,1.44580078125,2.63,0.619,-1.817
324,-3.2958984375,-5.18798828125,17.15087890625,-0.15673828125,0.03955078125,1.39208984375,2.63,0.619,-1.817
325,-3.2958984375,-5.18798828125,17.15087890625,-0.15673828125,0.03955078125,1.39208984375,2.63,0.619,-1.817
326,-3.2958984375,-5.18798828125,17.15087890625,-0.15673828125,0.03955078125,1.39208984375,2.63,0.619,-1.817
327,-3.2958984375,-5.18798828125,17.15087890625,-0.15673828125,0.03955078125,1.39208984375,2.63,0.619,-1.817
328,0.18310546875,-7.568359375,13.48876953125,-0.12548828125,0.041015625,1.35595703125,2.645,0.622,-1.809
329,0.18310546875,-7.568359375,13.48876953125,-0.12548828125,0.041015625,1.35595703125,2.645,0.622,-1.809
330,0.18310546875,-7.568359375,13.48876953125,-0.12548828125,0.041015625,1.35595703125,2.645,0.622,-1.809
331,0.18310546875,-7.568359375,13.48876953125,-0.12548828125,0.041015625,1.35595703125,2.645,0.622,-1.809
332,5.126953125,-11.8408203125,11.71875,-0.10693359375,0.04052734375,1.3359375,2.645,0.622,-1.809
333,5.126953125,-11.8408203125,11.71875,-0.10693359375,0.04052734375,1.3359375,2.654,0.608,-1.825
334,5.126953125,-11.8408203125,11.71875,-0.10693359375,0.04052734375,1.3359375,2.654,0.608,-1.825
335,11.29150390625,-16.9677734375,11.53564453125,-0.1416015625,0.02734375,1.27685546875,2.654,0.608,-1.825
336,11.29150390625,-16.9677734375,11.53564453125,-0.1416015625,0.02734375,1.27685546875,2.654,0.608,-1.825
337,11.29150390625,-16.9677734375,11.53564453125,-0.1416015625,0.02734375,1.27685546875,2.654,0.608,-1.825
338,20.263671875,-18.9208984375,6.65283203125,-0.17919921875,0.0234375,1.1826171875,2.642,0.586,-1.818
339,20.263671875,-18.9208984375,6.65283203125,-0.17919921875,0.0234375,1.1826171875,2.642,0.586,-1.818
340,20.263671875,-18.9208984375,6.65283203125,-0.17919921875,0.0234375,1.1826171875,2.642,0.586,-1.818
341,20.263671875,-18.9208984375,6.65283203125,-0.17919921875,0.0234375,1.1826171875,2.642,0.586,-1.818
342,25.0244140625,-10.92529296875,1.3427734375,-0.17333984375,0.0224609375,1.10888671875,2.642,0.586,-1.818
343,25.0244140625,-10.92529296875,1.3427734375,-0.17333984375,0.0224609375,1.10888671875,2.642,0.586,-1.818
344,25.0244140625,-10.92529296875,1.3427734375,-0.17333984375,0.0224609375,1.10888671875,2.627,0.541,-1.841
345,25.0244140625,-10.92529296875,1.3427734375,-0.17333984375,0.0224609375,1.10888671875,2.627,0.541,-1.841
346,26.79443359375,0.1220703125,-3.7841796875,-0.1181640625,0.02490234375,1.09521484375,2.627,0.541,-1.841
347,26.79443359375,0.1220703125,-3.7841796875,-0.1181640625,0.02490234375,1.09521484375,2.627,0.541,-1.841
348,26.79443359375,0.1220703125,-3.7841796875,-0.1181640625,0.02490234375,1.09521484375,2.627,0.541,-1.841
349,33.02001953125,9.8876953125,-9.21630859375,-0.0205078125,0.02978515625,1.14111328125,2.601,0.511,-1.869
350,33.02001953125,9.8876953125,-9.21630859375,-0.0205078125,0.02978515625,1.14111328125,2.601,0.511,-1.869
351,33.02001953125,9.8876953125,-9.21630859375,-0.0205078125,0.02978515625,1.14111328125,2.601,0.511,-1.869
352,33.02001953125,9.8876953125,-9.21630859375,-0.0205078125,0.02978515625,1.14111328125,2.601,0.511,-1.869
353,44.86083984375,19.287109375,-13.7939453125,0.10205078125,0.05908203125,1.17724609375,2.601,0.511,-1.869
354,44.86083984375,19.287109375,-13.7939453125,0.10205078125,0.05908203125,1.17724609375,2.601,0.474,-1.863
355,44.86083984375,19.287109375,-13.7939453125,0.10205078125,0.05908203125,1.17724609375,2.601,0.474,-1.863
356,55.11474609375,17.15087890625,-13.36669921875,0.24853515625,0.0537109375,1.11767578125,2.601,0.474,-1.863
357,55.11474609375,17.15087890625,-13.36669921875,0.24853515625,0.0537109375,1.11767578125,2.601,0.474,-1.863
358,55.11474609375,17.15087890625,-13.36669921875,0.24853515625,0.0537109375,1.11767578125,2.601,0.474,-1.863
359,55.11474609375,17.15087890625,-13.36669921875,0.24853515625,0.0537109375,1.11767578125,2.601,0.474,-1.863
360,52.18505859375,12.63427734375,-2.685546875,0.3642578125,0.1025390625,1.109375,2.611,0.393,-1.85
361,52.18505859375,12.63427734375,-2.685546875,0.3642578125,0.1025390625,1.109375,2.611,0.393,-1.85
362,52.18505859375,12.63427734375,-2.685546875,0.3642578125,0.1025390625,1.109375,2.611,0.393,-1.85
363,45.2880859375,7.14111328125,5.0048828125,0.48388671875,0.13623046875,1.12744140625,2.611,0.393,-1.85
364,45.2880859375,7.14111328125,5.0048828125,0.48388671875,0.13623046875,1.12744140625,2.611,0.393,-1.85
365,45.2880859375,7.14111328125,5.0048828125,0.48388671875,0.13623046875,1.12744140625,2.635,0.305,-1.832
366,45.2880859375,7.14111328125,5.0048828125,0.48388671875,0.13623046875,1.12744140625,2.635,0.305,-1.832
367,40.283203125,-5.9814453125,15.7470703125,0.556640625,0.1357421875,1.1123046875,2.635,0.305,-1.832
368,40.283203125,-5.9814453125,15.7470703125,0.556640625,0.1357421875,1.1123046875,2.635,0.305,-1.832
369,40.283203125,-5.9814453125,15.7470703125,0.556640625,0.1357421875,1.1123046875,2.635,0.305,-1.832
370,35.94970703125,-13.671875,31.67724609375,0.5908203125,0.1494140625,1.05224609375,2.645,0.213,-1.83
371,35.94970703125,-13.671875,31.67724609375,0.5908203125,0.1494140625,1.05224609375,2.645,0.213,-1.83
372,35.94970703125,-13.671875,31.67724609375,0.5908203125,0.1494140625,1.05224609375,2.645,0.213,-1.83
373,35.94970703125,-13.671875,31.67724609375,0.5908203125,0.1494140625,1.05224609375,2.645,0.213,-1.83
374,35.58349609375,-14.7705078125,49.560546875,0.55517578125,0.1728515625,0.94921875,2.645,0.213,-1.83
375,35.58349609375,-14.7705078125,49.560546875,0.55517578125,0.1728515625,0.94921875,2.645,0.213,-1.83
376,35.58349609375,-14.7705078125,49.560546875,0.55517578125,0.1728515625,0.94921875,2.632,0.074,-1.837
377,34.24072265625,-2.9296875,65.5517578125,0.44580078125,0.19384765625,0.845703125,2.632,0.074,-1.837
378,34.24072265625,-2.9296875,65.5517578125,0.44580078125,0.19384765625,0.845703125,2.632,0.074,-1.837
379,34.24072265625,-2.9296875,65.5517578125,0.44580078125,0.19384765625,0.845703125,2.632,0.074,-1.837
380,34.24072265625,-2.9296875,65.5517578125,0.44580078125,0.19384765625,0.845703125,2.632,0.074,-1.837
381,28.38134765625,13.0615234375,78.2470703125,0.3349609375,0.181640625,0.7919921875,2.633,-0.08,-1.82
382,28.38134765625,13.0615234375,78.2470703125,0.3349609375,0.181640625,0.7919921875,2.633,-0.08,-1.82
383,28.38134765625,13.0615234375,78.2470703125,0.3349609375,0.181640625,0.7919921875,2.633,-0.08,-1.82
384,28.38134765625,13.0615234375,78.2470703125,0.3349609375,0.181640625,0.7919921875,2.633,-0.08,-1.82
385,23.8037109375,25.2685546875,88.134765625,0.26318359375,0.1640625,0.8251953125,2.633,-0.08,-1.82
386,23.8037109375,25.2685546875,88.134765625,0.26318359375,0.1640625,0.8251953125,2.64,-0.259,-1.791
387,23.8037109375,25.2685546875,88.134765625,0.26318359375,0.1640625,0.8251953125,2.64,-0.259,-1.791
388,12.39013671875,20.751953125,95.52001953125,0.2490234375,0.16796875,0.85986328125,2.64,-0.259,-1.791
389,12.39013671875,20.751953125,95.52001953125,0.2490234375,0.16796875,0.85986328125,2.64,-0.259,-1.791
390,12.39013671875,20.751953125,95.52001953125,0.2490234375,0.16796875,0.85986328125,2.64,-0.259,-1.791
391,-1.708984375,6.8359375,108.94775390625,0.21484375,0.16455078125,0.8623046875,2.664,-0.463,-1.749
392,-1.708984375,6.8359375,108.94775390625,0.21484375,0.16455078125,0.8623046875,2.664,-0.463,-1.749
393,-1.708984375,6.8359375,108.94775390625,0.21484375,0.16455078125,0.8623046875,2.664,-0.463,-1.749
394,-1.708984375,6.8359375,108.94775390625,0.21484375,0.16455078125,0.8623046875,2.664,-0.463,-1.749
395,-17.7001953125,-24.10888671875,114.501953125,0.13134765625,0.146484375,0.845703125,2.664,-0.463,-1.749
396,-17.7001953125,-24.10888671875,114.501953125,0.13134765625,0.146484375,0.845703125,2.653,-0.674,-1.692
397,-17.7001953125,-24.10888671875,114.501953125,0.13134765625,0.146484375,0.845703125,2.653,-0.674,-1.692
398,-13.73291015625,-26.30615234375,114.8681640625,0.015625,0.06103515625,0.88623046875,2.653,-0.674,-1.692
399,-13.73291015625,-26.30615234375,114.8681640625,0.015625,0.06103515625,0.88623046875,2.653,-0.674,-1.692
400,-13.73291015625,-26.30615234375,114.8681640625,0.015625,0.06103515625,0.88623046875,2.653,-0.674,-1.692
401,-13.73291015625,-26.30615234375,114.8681640625,0.015625,0.06103515625,0.88623046875,2.598,-0.887,-1.665
402,3.60107421875,31.494140625,126.52587890625,-0.09619140625,-0.0439453125,0.916015625,2.598,-0.887,-1.665
403,3.60107421875,31.494140625,126.52587890625,-0.09619140625,-0.0439453125,0.916015625,2.598,-0.887,-1.665
404,3.60107421875,31.494140625,126.52587890625,-0.09619140625,-0.0439453125,0.916015625,2.598,-0.887,-1.665
405,12.939453125,68.7255859375,134.09423828125,-0.2099609375,-0.140625,0.970703125,2.598,-0.887,-1.665
406,12.939453125,68.7255859375,134.09423828125,-0.2099609375,-0.140625,0.970703125,2.598,-0.887,-1.665
407,12.939453125,68.7255859375,134.09423828125,-0.2099609375,-0.140625,0.970703125,2.568,-1.164,-1.58
408,12.939453125,68.7255859375,134.09423828125,-0.2099609375,-0.140625,0.970703125,2.568,-1.164,-1.58
409,13.18359375,61.03515625,130.55419921875,-0.26171875,-0.17529296875,0.99072265625,2.568,-1.164,-1.58
410,13.18359375,61.03515625,130.55419921875,-0.26171875,-0.17529296875,0.99072265625,2.568,-1.164,-1.58
411,13.18359375,61.03515625,130.55419921875,-0.26171875,-0.17529296875,0.99072265625,2.56,-1.364,-1.501
412,6.89697265625,40.71044921875,124.20654296875,-0.24853515625,-0.1396484375,0.94970703125,2.56,-1.364,-1.501
413,6.89697265625,40.71044921875,124.20654296875,-0.24853515625,-0.1396484375,0.94970703125,2.56,-1.364,-1.501
414,6.89697265625,40.71044921875,124.20654296875,-0.24853515625,-0.1396484375,0.94970703125,2.56,-1.364,-1.501
415,6.89697265625,40.71044921875,124.20654296875,-0.24853515625,-0.1396484375,0.94970703125,2.56,-1.364,-1.501
416,0.06103515625,28.38134765625,122.55859375,-0.25048828125,-0.10205078125,0.921875,2.56,-1.364,-1.501
417,0.06103515625,28.38134765625,122.55859375,-0.25048828125,-0.10205078125,0.921875,2.519,-1.658,-1.383
418,0.06103515625,28.38134765625,122.55859375,-0.25048828125,-0.10205078125,0.921875,2.519,-1.658,-1.383
419,0.244140625,30.45654296875,119.93408203125,-0.2509765625,-0.06689453125,0.91845703125,2.519,-1.658,-1.383
420,0.244140625,30.45654296875,119.93408203125,-0.2509765625,-0.06689453125,0.91845703125,2.519,-1.658,-1.383
421,0.244140625,30.45654296875,119.93408203125,-0.2509765625,-0.06689453125,0.91845703125,2.519,-1.658,-1.383
422,1.89208984375,41.32080078125,118.896484375,-0.27099609375,-0.06982421875,0.93212890625,2.476,-1.902,-1.303
423,1.89208984375,41.32080078125,118.896484375,-0.27099609375,-0.06982421875,0.93212890625,2.476,-1.902,-1.303
424,1.89208984375,41.32080078125,118.896484375,-0.27099609375,-0.06982421875,0.93212890625,2.476,-1.902,-1.303
425,1.89208984375,41.32080078125,118.896484375,-0.27099609375,-0.06982421875,0.93212890625,2.476,-1.902,-1.303
426,2.38037109375,42.236328125,114.56298828125,-0.29736328125,-0.06787109375,0.95849609375,2.476,-1.902,-1.303
427,2.38037109375,42.236328125,114.56298828125,-0.29736328125,-0.06787109375,0.95849609375,2.406,-2.14,-1.22
428,2.38037109375,42.236328125,114.56298828125,-0.29736328125,-0.06787109375,0.95849609375,2.406,-2.14,-1.22
429,-3.0517578125,34.48486328125,110.77880859375,-0.31982421875,-0.0751953125,0.962890625,2.406,-2.14,-1.22
430,-3.0517578125,34.48486328125,110.77880859375,-0.31982421875,-0.0751953125,0.962890625,2.406,-2.14,-1.22
431,-3.0517578125,34.48486328125,110.77880859375,-0.31982421875,-0.0751953125,0.962890625,2.406,-2.14,-1.22
432,-3.0517578125,34.48486328125,110.77880859375,-0.31982421875,-0.0751953125,0.962890625,2.332,-2.366,-1.146
433,-13.73291015625,6.2255859375,102.84423828125,-0.33837890625,-0.07666015625,0.95068359375,2.332,-2.366,-1.146
434,-13.73291015625,6.2255859375,102.84423828125,-0.33837890625,-0.07666015625,0.95068359375,2.332,-2.366,-1.146
435,-13.73291015625,6.2255859375,102.84423828125,-0.33837890625,-0.07666015625,0.95068359375,2.332,-2.366,-1.146
436,-17.578125,-8.1787109375,97.5341796875,-0.3642578125,-0.06982421875,0.92626953125,2.332,-2.366,-1.146
437,-17.578125,-8.1787109375,97.5341796875,-0.3642578125,-0.06982421875,0.92626953125,2.332,-2.366,-1.146
438,-17.578125,-8.1787109375,97.5341796875,-0.3642578125,-0.06982421875,0.92626953125,2.211,-2.586,-1.113
439,-17.578125,-8.1787109375,97.5341796875,-0.3642578125,-0.06982421875,0.92626953125,2.211,-2.586,-1.113
440,-16.11328125,-2.197265625,94.3603515625,-0.3671875,-0.03271484375,0.95166015625,2.211,-2.586,-1.113
441,-16.11328125,-2.197265625,94.3603515625,-0.3671875,-0.03271484375,0.95166015625,2.211,-2.586,-1.113
442,-16.11328125,-2.197265625,94.3603515625,-0.3671875,-0.03271484375,0.95166015625,2.211,-2.586,-1.113
443,-7.32421875,18.310546875,96.435546875,-0.39501953125,-0.0419921875,0.984375,2.092,-2.746,-1.116
444,-7.32421875,18.310546875,96.435546875,-0.39501953125,-0.0419921875,0.984375,2.092,-2.746,-1.116
445,-7.32421875,18.310546875,96.435546875,-0.39501953125,-0.0419921875,0.984375,2.092,-2.746,-1.116
446,-7.32421875,18.310546875,96.435546875,-0.39501953125,-0.0419921875,0.984375,2.092,-2.746,-1.116
447,-7.2021484375,14.83154296875,90.6982421875,-0.4404296875,-0.0703125,0.994140625,2.092,-2.746,-1.116
448,-7.2021484375,14.83154296875,90.6982421875,-0.4404296875,-0.0703125,0.994140625,1.961,-2.889,-1.107
449,-7.2021484375,14.83154296875,90.6982421875,-0.4404296875,-0.0703125,0.994140625,1.961,-2.889,-1.107
450,-10.07080078125,2.25830078125,83.31298828125,-0.40673828125,-0.07568359375,0.9853515625,1.961,-2.889,-1.107
451,-10.07080078125,2.25830078125,83.31298828125,-0.40673828125,-0.07568359375,0.9853515625,1.961,-2.889,-1.107
452,-10.07080078125,2.25830078125,83.31298828125,-0.40673828125,-0.07568359375,0.9853515625,1.961,-2.889,-1.107
453,-9.09423828125,5.06591796875,93.6279296875,-0.349609375,-0.08837890625,1.021484375,1.83,-3.031,-1.092
454,-9.09423828125,5.06591796875,93.6279296875,-0.349609375,-0.08837890625,1.021484375,1.83,-3.031,-1.092
455,-9.09423828125,5.06591796875,93.6279296875,-0.349609375,-0.08837890625,1.021484375,1.83,-3.031,-1.092
456,-9.09423828125,5.06591796875,93.6279296875,-0.349609375,-0.08837890625,1.021484375,1.83,-3.031,-1.092
457,-4.5166015625,11.71875,100.76904296875,-0.4453125,-0.068359375,1.125,1.83,-3.031,-1.092
458,-4.5166015625,11.71875,100.76904296875,-0.4453125,-0.068359375,1.125,1.686,-3.155,-1.094
459,-4.5166015625,11.71875,100.76904296875,-0.4453125,-0.068359375,1.125,1.686,-3.155,-1.094
460,5.37109375,3.11279296875,73.2421875,-0.546875,-0.0654296875,1.1220703125,1.686,-3.155,-1.094
461,5.37109375,3.11279296875,73.2421875,-0.546875,-0.0654296875,1.1220703125,1.686,-3.155,-1.094
462,5.37109375,3.11279296875,73.2421875,-0.546875,-0.0654296875,1.1220703125,1.686,-3.155,-1.094
463,5.37109375,3.11279296875,73.2421875,-0.546875,-0.0654296875,1.1220703125,1.686,-3.155,-1.094
464,6.7138671875,-12.0849609375,44.189453125,-0.55078125,-0.095703125,1.0048828125,1.518,-3.295,-1.076
465,6.7138671875,-12.0849609375,44.189453125,-0.55078125,-0.095703125,1.0048828125,1.518,-3.295,-1.076
466,6.7138671875,-12.0849609375,44.189453125,-0.55078125,-0.095703125,1.0048828125,1.518,-3.295,-1.076
467,6.7138671875,-12.0849609375,44.189453125,-0.55078125,-0.095703125,1.0048828125,1.518,-3.295,-1.076
468,-5.79833984375,-21.240234375,29.96826171875,-0.548828125,-0.1083984375,0.95068359375,1.518,-3.295,-1.076
469,-5.79833984375,-21.240234375,29.96826171875,-0.548828125,-0.1083984375,0.95068359375,1.398,-3.387,-1.084
470,-5.79833984375,-21.240234375,29.96826171875,-0.548828125,-0.1083984375,0.95068359375,1.398,-3.387,-1.084
471,-12.451171875,-22.15576171875,17.02880859375,-0.62939453125,-0.16259765625,0.93359375,1.398,-3.387,-1.084
472,-12.451171875,-22.15576171875,17.02880859375,-0.62939453125,-0.16259765625,0.93359375,1.398,-3.387,-1.084
473,-12.451171875,-22.15576171875,17.02880859375,-0.62939453125,-0.16259765625,0.93359375,1.398,-3.387,-1.084
474,-14.7705078125,-17.578125,-9.33837890625,-0.701171875,-0.193359375,0.9580078125,1.293,-3.446,-1.1
475,-14.7705078125,-17.578125,-9.33837890625,-0.701171875,-0.193359375,0.9580078125,1.293,-3.446,-1.1
476,-14.7705078125,-17.578125,-9.33837890625,-0.701171875,-0.193359375,0.9580078125,1.293,-3.446,-1.1
477,-14.7705078125,-17.578125,-9.33837890625,-0.701171875,-0.193359375,0.9580078125,1.293,-3.446,-1.1
478,-12.02392578125,-11.3525390625,-38.39111328125,-0.662109375,-0.2001953125,0.98828125,1.293,-3.446,-1.1
479,-12.02392578125,-11.3525390625,-38.39111328125,-0.662109375,-0.2001953125,0.98828125,1.228,-3.465,-1.113
480,-12.02392578125,-11.3525390625,-38.39111328125,-0.662109375,-0.2001953125,0.98828125,1.228,-3.465,-1.113
481,-10.92529296875,-15.19775390625,-58.77685546875,-0.546875,-0.17724609375,1.02978515625,1.228,-3.465,-1.113
482,-10.92529296875,-15.19775390625,-58.77685546875,-0.546875,-0.17724609375,1.02978515625,1.228,-3.465,-1.113
483,-10.92529296875,-15.19775390625,-58.77685546875,-0.546875,-0.17724609375,1.02978515625,1.228,-3.465,-1.113
484,-10.92529296875,-15.19775390625,-58.77685546875,-0.546875,-0.17724609375,1.02978515625,1.228,-3.437,-1.138
485,-12.26806640625,-26.42822265625,-69.9462890625,-0.513671875,-0.17041015625,1.04248046875,1.228,-3.437,-1.138
486,-12.26806640625,-26.42822265625,-69.9462890625,-0.513671875,-0.17041015625,1.04248046875,1.228,-3.437,-1.138
487,-12.26806640625,-26.42822265625,-69.9462890625,-0.513671875,-0.17041015625,1.04248046875,1.228,-3.437,-1.138
488,-14.70947265625,-35.21728515625,-85.38818359375,-0.54296875,-0.19091796875,0.9814453125,1.228,-3.437,-1.138
489,-14.70947265625,-35.21728515625,-85.38818359375,-0.54296875,-0.19091796875,0.9814453125,1.259,-3.376,-1.168
490,-14.70947265625,-35.21728515625,-85.38818359375,-0.54296875,-0.19091796875,0.9814453125,1.259,-3.376,-1.168
491,-14.70947265625,-35.21728515625,-85.38818359375,-0.54296875,-0.19091796875,0.9814453125,1.259,-3.376,-1.168
492,-20.99609375,-30.8837890625,-103.6376953125,-0.5341796875,-0.208984375,0.97802734375,1.259,-3.376,-1.168
493,-20.99609375,-30.8837890625,-103.6376953125,-0.5341796875,-0.208984375,0.97802734375,1.259,-3.376,-1.168
494,-20.99609375,-30.8837890625,-103.6376953125,-0.5341796875,-0.208984375,0.97802734375,1.259,-3.376,-1.168
495,-21.240234375,-21.78955078125,-120.30029296875,-0.46044921875,-0.22119140625,1.07177734375,1.335,-3.252,-1.21
496,-21.240234375,-21.78955078125,-120.30029296875,-0.46044921875,-0.22119140625,1.07177734375,1.335,-3.252,-1.21
497,-21.240234375,-21.78955078125,-120.30029296875,-0.46044921875,-0.22119140625,1.07177734375,1.335,-3.252,-1.21
498,-21.240234375,-21.78955078125,-120.30029296875,-0.46044921875,-0.22119140625,1.07177734375,1.335,-3.252,-1.21
499,-10.92529296875,-18.98193359375,-131.591796875,-0.35498046875,-0.2197265625,1.1337890625,1.335,-3.252,-1.21
500,-10.92529296875,-18.98193359375,-131.591796875,-0.35498046875,-0.2197265625,1.1337890625,1.448,-3.11,-1.236
501,-10.92529296875,-18.98193359375,-131.591796875,-0.35498046875,-0.2197265625,1.1337890625,1.448,-3.11,-1.236
502,-3.41796875,-19.83642578125,-136.71875,-0.296875,-0.22802734375,1.1318359375,1.448,-3.11,-1.236
503,-3.41796875,-19.83642578125,-136.71875,-0.296875,-0.22802734375,1.1318359375,1.448,-3.11,-1.236
504,-3.41796875,-19.83642578125,-136.71875,-0.296875,-0.22802734375,1.1318359375,1.448,-3.11,-1.236
505,-3.41796875,-19.83642578125,-136.71875,-0.296875,-0.22802734375,1.1318359375,1.598,-2.944,-1.266
506,-3.35693359375,-24.84130859375,-144.47021484375,-0.2724609375,-0.22314453125,1.08984375,1.598,-2.944,-1.266
507,-3.35693359375,-24.84130859375,-144.47021484375,-0.2724609375,-0.22314453125,1.08984375,1.598,-2.944,-1.266
508,-3.35693359375,-24.84130859375,-144.47021484375,-0.2724609375,-0.22314453125,1.08984375,1.598,-2.944,-1.266
509,-9.521484375,-31.982421875,-154.9072265625,-0.21533203125,-0.20361328125,1.0810546875,1.598,-2.944,-1.266
510,-9.521484375,-31.982421875,-154.9072265625,-0.21533203125,-0.20361328125,1.0810546875,1.749,-2.735,-1.318
511,-9.521484375,-31.982421875,-154.9072265625,-0.21533203125,-0.20361328125,1.0810546875,1.749,-2.735,-1.318
512,-9.521484375,-31.982421875,-154.9072265625,-0.21533203125,-0.20361328125,1.0810546875,1.749,-2.735,-1.318
513,-10.6201171875,-35.58349609375,-162.65869140625,-0.13720703125,-0.169921875,1.078125,1.749,-2.735,-1.318
514,-10.6201171875,-35.58349609375,-162.65869140625,-0.13720703125,-0.169921875,1.078125,1.749,-2.735,-1.318
515,-10.6201171875,-35.58349609375,-162.65869140625,-0.13720703125,-0.169921875,1.078125,1.899,-2.493,-1.393
516,-10.986328125,-33.5693359375,-164.24560546875,-0.0693359375,-0.154296875,1.04541015625,1.899,-2.493,-1.393
517,-10.986328125,-33.5693359375,-164.24560546875,-0.0693359375,-0.154296875,1.04541015625,1.899,-2.493,-1.393
518,-10.986328125,-33.5693359375,-164.24560546875,-0.0693359375,-0.154296875,1.04541015625,1.899,-2.493,-1.393
519,-9.58251953125,-27.099609375,-166.80908203125,-0.0263671875,-0.11572265625,1.0341796875,1.899,-2.493,-1.393
520,-9.58251953125,-27.099609375,-166.80908203125,-0.0263671875,-0.11572265625,1.0341796875,2.047,-2.214,-1.477
521,-9.58251953125,-27.099609375,-166.80908203125,-0.0263671875,-0.11572265625,1.0341796875,2.047,-2.214,-1.477
522,-9.58251953125,-27.099609375,-166.80908203125,-0.0263671875,-0.11572265625,1.0341796875,2.047,-2.214,-1.477
523,-4.94384765625,-16.05224609375,-167.8466796875,0.03564453125,-0.09326171875,1.04150390625,2.047,-2.214,-1.477
524,-4.94384765625,-16.05224609375,-167.8466796875,0.03564453125,-0.09326171875,1.04150390625,2.047,-2.214,-1.477
525,-4.94384765625,-16.05224609375,-167.8466796875,0.03564453125,-0.09326171875,1.04150390625,2.047,-2.214,-1.477
526,-4.94384765625,-16.05224609375,-167.8466796875,0.03564453125,-0.09326171875,1.04150390625,2.047,-2.214,-1.477
527,1.64794921875,-3.41796875,-168.8232421875,0.1142578125,-0.06494140625,1.05029296875,2.047,-2.214,-1.477
528,1.64794921875,-3.41796875,-168.8232421875,0.1142578125,-0.06494140625,1.05029296875,2.047,-2.214,-1.477
529,1.64794921875,-3.41796875,-168.8232421875,0.1142578125,-0.06494140625,1.05029296875,2.047,-2.214,-1.477
530,7.2021484375,1.89208984375,-162.841796875,0.2158203125,-0.02685546875,1.07666015625,2.047,-2.214,-1.477
531,7.2021484375,1.89208984375,-162.841796875,0.2158203125,-0.02685546875,1.07666015625,2.291,-1.543,-1.702
532,7.2021484375,1.89208984375,-162.841796875,0.2158203125,-0.02685546875,1.07666015625,2.291,-1.543,-1.702
533,7.2021484375,1.89208984375,-162.841796875,0.2158203125,-0.02685546875,1.07666015625,2.291,-1.543,-1.702
534,15.44189453125,5.126953125,-151.3671875,0.31591796875,0.04638671875,1.08349609375,2.291,-1.543,-1.702
535,15.44189453125,5.126953125,-151.3671875,0.31591796875,0.04638671875,1.08349609375,2.291,-1.543,-1.702
536,15.44189453125,5.126953125,-151.3671875,0.31591796875,0.04638671875,1.08349609375,2.291,-1.543,-1.702
537,19.6533203125,5.79833984375,-135.7421875,0.36865234375,0.10546875,1.01416015625,2.391,-1.188,-1.764
538,19.6533203125,5.79833984375,-135.7421875,0.36865234375,0.10546875,1.01416015625,2.391,-1.188,-1.764
539,19.6533203125,5.79833984375,-135.7421875,0.36865234375,0.10546875,1.01416015625,2.391,-1.188,-1.764
540,19.6533203125,5.79833984375,-135.7421875,0.36865234375,0.10546875,1.01416015625,2.391,-1.188,-1.764
541,15.19775390625,0.18310546875,-119.44580078125,0.36669921875,0.15380859375,0.94873046875,2.391,-1.188,-1.764
542,15.19775390625,0.18310546875,-119.44580078125,0.36669921875,0.15380859375,0.94873046875,2.436,-0.93,-1.808
543,15.19775390625,0.18310546875,-119.44580078125,0.36669921875,0.15380859375,0.94873046875,2.436,-0.93,-1.808
544,8.72802734375,-3.41796875,-108.21533203125,0.35888671875,0.189453125,0.8984375,2.436,-0.93,-1.808
545,8.72802734375,-3.41796875,-108.21533203125,0.35888671875,0.189453125,0.8984375,2.436,-0.93,-1.808
546,8.72802734375,-3.41796875,-108.21533203125,0.35888671875,0.189453125,0.8984375,2.436,-0.93,-1.808
547,-0.732421875,-5.79833984375,-97.7783203125,0.35888671875,0.189453125,0.8984375,2.469,-0.7,-1.853
548,-0.732421875,-5.79833984375,-97.7783203125,0.37451171875,0.21728515625,0.876953125,2.469,-0.7,-1.853
549,-0.732421875,-5.79833984375,-97.7783203125,0.37451171875,0.21728515625,0.876953125,2.469,-0.7,-1.853
550,-0.732421875,-5.79833984375,-97.7783203125,0.37451171875,0.21728515625,0.876953125,2.469,-0.7,-1.853
551,-7.01904296875,-5.859375,-84.3505859375,0.40234375,0.2431640625,0.89892578125,2.469,-0.7,-1.853
552,-7.01904296875,-5.859375,-84.3505859375,0.40234375,0.2431640625,0.89892578125,2.47,-0.496,-1.897
553,-7.01904296875,-5.859375,-84.3505859375,0.40234375,0.2431640625,0.89892578125,2.47,-0.496,-1.897
554,-7.01904296875,-5.859375,-84.3505859375,0.40234375,0.2431640625,0.89892578125,2.47,-0.496,-1.897
555,-6.2255859375,-1.03759765625,-67.626953125,0.41455078125,0.25927734375,0.9140625,2.47,-0.496,-1.897
556,-6.2255859375,-1.03759765625,-67.626953125,0.41455078125,0.25927734375,0.9140625,2.47,-0.496,-1.897
557,-6.2255859375,-1.03759765625,-67.626953125,0.41455078125,0.25927734375,0.9140625,2.465,-0.317,-1.92
558,-7.38525390625,1.5869140625,-50.4150390625,0.376953125,0.23583984375,0.91064453125,2.465,-0.317,-1.92
559,-7.38525390625,1.5869140625,-50.4150390625,0.376953125,0.23583984375,0.91064453125,2.465,-0.317,-1.92
560,-7.38525390625,1.5869140625,-50.4150390625,0.376953125,0.23583984375,0.91064453125,2.465,-0.317,-1.92
561,-7.38525390625,1.5869140625,-50.4150390625,0.376953125,0.23583984375,0.91064453125,2.465,-0.317,-1.92
562,-12.63427734375,-2.8076171875,-39.1845703125,0.32275390625,0.21923828125,0.89794921875,2.461,-0.166,-1.941
563,-12.63427734375,-2.8076171875,-39.1845703125,0.32275390625,0.21923828125,0.89794921875,2.461,-0.166,-1.941
564,-12.63427734375,-2.8076171875,-39.1845703125,0.32275390625,0.21923828125,0.89794921875,2.461,-0.166,-1.941
565,-16.05224609375,2.0751953125,-31.18896484375,0.31201171875,0.22998046875,0.91015625,2.461,-0.166,-1.941
566,-16.05224609375,2.0751953125,-31.18896484375,0.31201171875,0.22998046875,0.91015625,2.461,-0.166,-1.941
567,-16.05224609375,2.0751953125,-31.18896484375,0.31201171875,0.22998046875,0.91015625,2.461,-0.166,-1.941
568,-16.05224609375,2.0751953125,-31.18896484375,0.31201171875,0.22998046875,0.91015625,2.438,-0.016,-1.934
569,-13.916015625,16.9677734375,-21.8505859375,0.33837890625,0.23388671875,0.96728515625,2.438,-0.016,-1.934
570,-13.916015625,16.9677734375,-21.8505859375,0.33837890625,0.23388671875,0.96728515625,2.438,-0.016,-1.934
571,-13.916015625,16.9677734375,-21.8505859375,0.33837890625,0.23388671875,0.96728515625,2.438,-0.016,-1.934
572,-7.50732421875,26.611328125,-9.33837890625,0.3779296875,0.23486328125,1.04296875,2.438,-0.016,-1.934
573,-7.50732421875,26.611328125,-9.33837890625,0.3779296875,0.23486328125,1.04296875,2.453,0.084,-1.93
574,-7.50732421875,26.611328125,-9.33837890625,0.3779296875,0.23486328125,1.04296875,2.453,0.084,-1.93
575,-7.50732421875,26.611328125,-9.33837890625,0.3779296875,0.23486328125,1.04296875,2.453,0.084,-1.93
576,-4.08935546875,21.05712890625,4.39453125,0.4111328125,0.22607421875,1.08056640625,2.453,0.084,-1.93
577,-4.08935546875,21.05712890625,4.39453125,0.4111328125,0.22607421875,1.08056640625,2.453,0.084,-1.93
578,-4.08935546875,21.05712890625,4.39453125,0.4111328125,0.22607421875,1.08056640625,2.475,0.155,-1.929
579,-7.6904296875,10.7421875,18.9208984375,0.39990234375,0.2158203125,1.05908203125,2.475,0.155,-1.929
580,-7.6904296875,10.7421875,18.9208984375,0.39990234375,0.2158203125,1.05908203125,2.475,0.155,-1.929
581,-7.6904296875,10.7421875,18.9208984375,0.39990234375,0.2158203125,1.05908203125,2.475,0.155,-1.929
582,-7.6904296875,10.7421875,18.9208984375,0.39990234375,0.2158203125,1.05908203125,2.475,0.155,-1.929
583,-12.02392578125,6.34765625,31.06689453125,0.3662109375,0.20263671875,1.044921875,2.475,0.155,-1.929
584,-12.02392578125,6.34765625,31.06689453125,0.3662109375,0.20263671875,1.044921875,2.5,0.178,-1.895
585,-12.02392578125,6.34765625,31.06689453125,0.3662109375,0.20263671875,1.044921875,2.5,0.178,-1.895
586,-14.6484375,4.0283203125,39.48974609375,0.35693359375,0.18603515625,1.03173828125,2.5,0.178,-1.895
587,-14.6484375,4.0283203125,39.48974609375,0.35693359375,0.18603515625,1.03173828125,2.5,0.178,-1.895
588,-14.6484375,4.0283203125,39.48974609375,0.35693359375,0.18603515625,1.03173828125,2.5,0.178,-1.895
589,-14.6484375,4.0283203125,39.48974609375,0.35693359375,0.18603515625,1.03173828125,2.538,0.17,-1.87
590,-15.625,6.28662109375,49.9267578125,0.3701171875,0.18359375,1.04443359375,2.538,0.17,-1.87
591,-15.625,6.28662109375,49.9267578125,0.3701171875,0.18359375,1.04443359375,2.538,0.17,-1.87
592,-15.625,6.28662109375,49.9267578125,0.3701171875,0.18359375,1.04443359375,2.538,0.17,-1.87
593,-10.68115234375,13.5498046875,61.21826171875,0.35595703125,0.17138671875,1.0595703125,2.538,0.17,-1.87
594,-10.68115234375,13.5498046875,61.21826171875,0.35595703125,0.17138671875,1.0595703125,2.568,0.15,-1.862
595,-10.68115234375,13.5498046875,61.21826171875,0.35595703125,0.17138671875,1.0595703125,2.568,0.15,-1.862
596,-10.68115234375,13.5498046875,61.21826171875,0.35595703125,0.17138671875,1.0595703125,2.568,0.15,-1.862
597,-0.91552734375,16.54052734375,78.0029296875,0.3017578125,0.14111328125,1.05615234375,2.568,0.15,-1.862
598,-0.91552734375,16.54052734375,78.0029296875,0.3017578125,0.14111328125,1.05615234375,2.568,0.15,-1.862
599,-0.91552734375,16.54052734375,78.0029296875,0.3017578125,0.14111328125,1.05615234375,2.568,0.15,-1.862
600,0.06103515625,18.98193359375,85.14404296875,0.24267578125,0.080078125,1.01416015625,2.613,0.085,-1.833
601,0.06103515625,18.98193359375,85.14404296875,0.24267578125,0.080078125,1.01416015625,2.613,0.085,-1.833
602,0.06103515625,18.98193359375,85.14404296875,0.24267578125,0.080078125,1.01416015625,2.613,0.085,-1.833
603,0.06103515625,18.98193359375,85.14404296875,0.24267578125,0.080078125,1.01416015625,2.613,0.085,-1.833
604,-5.615234375,20.93505859375,89.05029296875,0.189453125,0.04345703125,1.0224609375,2.613,0.085,-1.833
605,-5.615234375,20.93505859375,89.05029296875,0.189453125,0.04345703125,1.0224609375,2.672,-0.021,-1.808
606,-5.615234375,20.93505859375,89.05029296875,0.189453125,0.04345703125,1.0224609375,2.672,-0.021,-1.808
607,-5.615234375,20.93505859375,89.05029296875,0.189453125,0.04345703125,1.0224609375,2.672,-0.021,-1.808
608,-10.68115234375,16.17431640625,88.31787109375,0.15625,0.0234375,1.0390625,2.672,-0.021,-1.808
609,-10.68115234375,16.17431640625,88.31787109375,0.15625,0.0234375,1.0390625,2.672,-0.021,-1.808
610,-10.68115234375,16.17431640625,88.31787109375,0.15625,0.0234375,1.0390625,2.739,-0.149,-1.756
611,-12.8173828125,13.671875,88.68408203125,0.1494140625,0.02294921875,1.044921875,2.739,-0.149,-1.756
612,-12.8173828125,13.671875,88.68408203125,0.1494140625,0.02294921875,1.044921875,2.739,-0.149,-1.756
613,-12.8173828125,13.671875,88.68408203125,0.1494140625,0.02294921875,1.044921875,2.739,-0.149,-1.756
614,-11.3525390625,13.5498046875,91.73583984375,0.1455078125,0.01611328125,1.05224609375,2.739,-0.149,-1.756
615,-11.3525390625,13.5498046875,91.73583984375,0.1455078125,0.01611328125,1.05224609375,2.799,-0.285,-1.717
616,-11.3525390625,13.5498046875,91.73583984375,0.1455078125,0.01611328125,1.05224609375,2.799,-0.285,-1.717
617,-11.3525390625,13.5498046875,91.73583984375,0.1455078125,0.01611328125,1.05224609375,2.799,-0.285,-1.717
618,-7.62939453125,17.02880859375,94.970703125,0.142578125,0.02294921875,1.03955078125,2.799,-0.285,-1.717
619,-7.62939453125,17.02880859375,94.970703125,0.142578125,0.02294921875,1.03955078125,2.799,-0.285,-1.717
620,-7.62939453125,17.02880859375,94.970703125,0.142578125,0.02294921875,1.03955078125,2.842,-0.453,-1.672
621,-3.11279296875,29.11376953125,99.79248046875,0.14013671875,0.02490234375,1.0458984375,2.842,-0.453,-1.672
622,-3.11279296875,29.11376953125,99.79248046875,0.14013671875,0.02490234375,1.0458984375,2.842,-0.453,-1.672
623,-3.11279296875,29.11376953125,99.79248046875,0.14013671875,0.02490234375,1.0458984375,2.842,-0.453,-1.672
624,-3.11279296875,29.11376953125,99.79248046875,0.14013671875,0.02490234375,1.0458984375,2.842,-0.453,-1.672
625,2.44140625,37.41455078125,103.515625,0.12841796875,0.01806640625,1.0615234375,2.891,-0.641,-1.61
626,2.44140625,37.41455078125,103.515625,0.12841796875,0.01806640625,1.0615234375,2.891,-0.641,-1.61
627,2.44140625,37.41455078125,103.515625,0.12841796875,0.01806640625,1.0615234375,2.891,-0.641,-1.61
628,5.9814453125,38.2080078125,107.48291015625,0.1171875,0.0107421875,1.03857421875,2.891,-0.641,-1.61
629,5.9814453125,38.2080078125,107.48291015625,0.1171875,0.0107421875,1.03857421875,2.891,-0.641,-1.61
630,5.9814453125,38.2080078125,107.48291015625,0.1171875,0.0107421875,1.03857421875,2.891,-0.641,-1.61
631,5.9814453125,38.2080078125,107.48291015625,0.1171875,0.0107421875,1.03857421875,2.931,-0.893,-1.46
632,5.615234375,38.26904296875,110.9619140625,0.0888671875,-0.00732421875,1.00341796875,2.931,-0.893,-1.46
633,5.615234375,38.26904296875,110.9619140625,0.0888671875,-0.00732421875,1.00341796875,2.931,-0.893,-1.46
634,5.615234375,38.26904296875,110.9619140625,0.0888671875,-0.00732421875,1.00341796875,2.931,-0.893,-1.46
635,3.41796875,35.46142578125,113.28125,0.0771484375,-0.029296875,0.9814453125,2.931,-0.893,-1.46
636,3.41796875,35.46142578125,113.28125,0.0771484375,-0.029296875,0.9814453125,2.937,-1.126,-1.36
637,3.41796875,35.46142578125,113.28125,0.0771484375,-0.029296875,0.9814453125,2.937,-1.126,-1.36
638,3.41796875,35.46142578125,113.28125,0.0771484375,-0.029296875,0.9814453125,2.937,-1.126,-1.36
639,1.77001953125,32.5927734375,117.1875,0.099609375,-0.03662109375,0.966796875,2.937,-1.126,-1.36
640,1.77001953125,32.5927734375,117.1875,0.099609375,-0.03662109375,0.966796875,2.937,-1.126,-1.36
641,1.77001953125,32.5927734375,117.1875,0.099609375,-0.03662109375,0.966796875,2.926,-1.378,-1.272
642,-0.244140625,28.99169921875,124.3896484375,0.07421875,-0.06591796875,0.9501953125,2.926,-1.378,-1.272
643,-0.244140625,28.99169921875,124.3896484375,0.07421875,-0.06591796875,0.9501953125,2.926,-1.378,-1.272
644,-0.244140625,28.99169921875,124.3896484375,0.07421875,-0.06591796875,0.9501953125,2.926,-1.378,-1.272
645,-4.69970703125,21.66748046875,128.173828125,-0.0009765625,-0.0966796875,0.93701171875,2.926,-1.378,-1.272
646,-4.69970703125,21.66748046875,128.173828125,-0.0009765625,-0.0966796875,0.93701171875,2.872,-1.637,-1.166
647,-4.69970703125,21.66748046875,128.173828125,-0.0009765625,-0.0966796875,0.93701171875,2.872,-1.637,-1.166
648,-4.69970703125,21.66748046875,128.173828125,-0.0009765625,-0.0966796875,0.93701171875,2.872,-1.637,-1.166
649,-16.6015625,8.23974609375,127.38037109375,-0.08154296875,-0.13916015625,0.89892578125,2.872,-1.637,-1.166
650,-16.6015625,8.23974609375,127.38037109375,-0.08154296875,-0.13916015625,0.89892578125,2.872,-1.637,-1.166
651,-16.6015625,8.23974609375,127.38037109375,-0.08154296875,-0.13916015625,0.89892578125,2.792,-1.898,-1.087
652,-29.541015625,-1.8310546875,119.2626953125,-0.12939453125,-0.13037109375,0.912109375,2.792,-1.898,-1.087
653,-29.541015625,-1.8310546875,119.2626953125,-0.12939453125,-0.13037109375,0.912109375,2.792,-1.898,-1.087
654,-29.541015625,-1.8310546875,119.2626953125,-0.12939453125,-0.13037109375,0.912109375,2.792,-1.898,-1.087
655,-29.541015625,-1.8310546875,119.2626953125,-0.12939453125,-0.13037109375,0.912109375,2.792,-1.898,-1.087
656,-35.09521484375,-5.43212890625,111.38916015625,-0.123046875,-0.11572265625,0.962890625,2.792,-1.898,-1.087
657,-35.09521484375,-5.43212890625,111.38916015625,-0.123046875,-0.11572265625,0.962890625,2.639,-2.17,-1.062
658,-35.09521484375,-5.43212890625,111.38916015625,-0.123046875,-0.11572265625,0.962890625,2.639,-2.17,-1.062
659,-30.6396484375,-2.38037109375,109.130859375,-0.11474609375,-0.083984375,1.0263671875,2.639,-2.17,-1.062
660,-30.6396484375,-2.38037109375,109.130859375,-0.11474609375,-0.083984375,1.0263671875,2.639,-2.17,-1.062
661,-30.6396484375,-2.38037109375,109.130859375,-0.11474609375,-0.083984375,1.0263671875,2.639,-2.17,-1.062
662,-30.6396484375,-2.38037109375,109.130859375,-0.11474609375,-0.083984375,1.0263671875,2.478,-2.354,-1.06
663,-21.240234375,1.03759765625,111.14501953125,-0.1494140625,-0.09130859375,1.02685546875,2.478,-2.354,-1.06
664,-21.240234375,1.03759765625,111.14501953125,-0.1494140625,-0.09130859375,1.02685546875,2.478,-2.354,-1.06
665,-21.240234375,1.03759765625,111.14501953125,-0.1494140625,-0.09130859375,1.02685546875,2.478,-2.354,-1.06
666,-17.27294921875,-1.77001953125,110.595703125,-0.22802734375,-0.11181640625,0.9755859375,2.478,-2.354,-1.06
667,-17.27294921875,-1.77001953125,110.595703125,-0.22802734375,-0.11181640625,0.9755859375,2.314,-2.538,-1.081
668,-17.27294921875,-1.77001953125,110.595703125,-0.22802734375,-0.11181640625,0.9755859375,2.314,-2.538,-1.081
669,-17.27294921875,-1.77001953125,110.595703125,-0.22802734375,-0.11181640625,0.9755859375,2.314,-2.538,-1.081
670,-21.78955078125,-3.5400390625,104.1259765625,-0.3115234375,-0.12744140625,0.92529296875,2.314,-2.538,-1.081
671,-21.78955078125,-3.5400390625,104.1259765625,-0.3115234375,-0.12744140625,0.92529296875,2.314,-2.538,-1.081
672,-21.78955078125,-3.5400390625,104.1259765625,-0.3115234375,-0.12744140625,0.92529296875,2.14,-2.695,-1.091
673,-25.390625,-3.23486328125,94.90966796875,-0.35498046875,-0.142578125,0.91845703125,2.14,-2.695,-1.091
674,-25.390625,-3.23486328125,94.90966796875,-0.35498046875,-0.142578125,0.91845703125,2.14,-2.695,-1.091
675,-25.390625,-3.23486328125,94.90966796875,-0.35498046875,-0.142578125,0.91845703125,2.14,-2.695,-1.091
676,-22.0947265625,1.52587890625,87.0361328125,-0.38720703125,-0.1806640625,0.92724609375,2.14,-2.695,-1.091
677,-22.0947265625,1.52587890625,87.0361328125,-0.38720703125,-0.1806640625,0.92724609375,1.964,-2.824,-1.131
678,-22.0947265625,1.52587890625,87.0361328125,-0.38720703125,-0.1806640625,0.92724609375,1.964,-2.824,-1.131
679,-22.0947265625,1.52587890625,87.0361328125,-0.38720703125,-0.1806640625,0.92724609375,1.964,-2.824,-1.131
680,-4.150390625,26.4892578125,80.01708984375,-0.484375,-0.24853515625,0.93701171875,1.964,-2.824,-1.131
681,-4.150390625,26.4892578125,80.01708984375,-0.484375,-0.24853515625,0.93701171875,1.964,-2.824,-1.131
682,-4.150390625,26.4892578125,80.01708984375,-0.484375,-0.24853515625,0.93701171875,1.808,-2.946,-1.167
683,19.34814453125,67.0166015625,60.4248046875,-0.62353515625,-0.3388671875,0.95068359375,1.808,-2.946,-1.167
684,19.34814453125,67.0166015625,60.4248046875,-0.62353515625,-0.3388671875,0.95068359375,1.808,-2.946,-1.167
685,19.34814453125,67.0166015625,60.4248046875,-0.62353515625,-0.3388671875,0.95068359375,1.808,-2.946,-1.167
686,19.34814453125,67.0166015625,60.4248046875,-0.62353515625,-0.3388671875,0.95068359375,1.808,-2.946,-1.167
687,28.80859375,75.5615234375,31.3720703125,-0.640625,-0.349609375,0.98193359375,1.808,-2.946,-1.167
688,28.80859375,75.5615234375,31.3720703125,-0.640625,-0.349609375,0.98193359375,1.713,-3.084,-1.146
689,28.80859375,75.5615234375,31.3720703125,-0.640625,-0.349609375,0.98193359375,1.713,-3.084,-1.146
690,28.80859375,75.5615234375,31.3720703125,-0.640625,-0.349609375,0.98193359375,1.713,-3.084,-1.146
691,23.193359375,61.1572265625,5.859375,-0.5263671875,-0.23095703125,1.0556640625,1.713,-3.084,-1.146
692,23.193359375,61.1572265625,5.859375,-0.5263671875,-0.23095703125,1.0556640625,1.713,-3.084,-1.146
693,23.193359375,61.1572265625,5.859375,-0.5263671875,-0.23095703125,1.0556640625,1.706,-3.186,-1.095
694,19.8974609375,41.015625,-10.7421875,-0.43017578125,-0.126953125,1.0546875,1.706,-3.186,-1.095
695,19.8974609375,41.015625,-10.7421875,-0.43017578125,-0.126953125,1.0546875,1.706,-3.186,-1.095
696,19.8974609375,41.015625,-10.7421875,-0.43017578125,-0.126953125,1.0546875,1.706,-3.186,-1.095
697,13.36669921875,27.28271484375,-20.6298828125,-0.3916015625,-0.06591796875,1.0234375,1.706,-3.186,-1.095
698,13.36669921875,27.28271484375,-20.6298828125,-0.3916015625,-0.06591796875,1.0234375,1.732,-3.265,-1.055
699,13.36669921875,27.28271484375,-20.6298828125,-0.3916015625,-0.06591796875,1.0234375,1.732,-3.265,-1.055
700,13.36669921875,27.28271484375,-20.6298828125,-0.3916015625,-0.06591796875,1.0234375,1.732,-3.265,-1.055
701,3.96728515625,16.2353515625,-28.50341796875,-0.3583984375,-0.02978515625,1.041015625,1.732,-3.265,-1.055
702,3.96728515625,16.2353515625,-28.50341796875,-0.3583984375,-0.02978515625,1.041015625,1.732,-3.265,-1.055
703,3.96728515625,16.2353515625,-28.50341796875,-0.3583984375,-0.02978515625,1.041015625,1.77,-3.304,-1.004
704,-3.47900390625,3.72314453125,-33.69140625,-0.33056640625,-0.029296875,1.078125,1.77,-3.304,-1.004
705,-3.47900390625,3.72314453125,-33.69140625,-0.33056640625,-0.029296875,1.078125,1.77,-3.304,-1.004
706,-3.47900390625,3.72314453125,-33.69140625,-0.33056640625,-0.029296875,1.078125,1.77,-3.304,-1.004
707,-3.47900390625,3.72314453125,-33.69140625,-0.33056640625,-0.029296875,1.078125,1.77,-3.304,-1.004
708,-12.939453125,-18.61572265625,-38.9404296875,-0.328125,-0.0537109375,1.10888671875,1.814,-3.309,-0.971
709,-12.939453125,-18.61572265625,-38.9404296875,-0.328125,-0.0537109375,1.10888671875,1.814,-3.309,-0.971
710,-12.939453125,-18.61572265625,-38.9404296875,-0.328125,-0.0537109375,1.10888671875,1.814,-3.309,-0.971
711,-12.939453125,-18.61572265625,-38.9404296875,-0.328125,-0.0537109375,1.10888671875,1.814,-3.309,-0.971
712,-14.09912109375,-31.06689453125,-49.072265625,-0.33642578125,-0.07421875,1.1298828125,1.814,-3.309,-0.971
713,-14.09912109375,-31.06689453125,-49.072265625,-0.33642578125,-0.07421875,1.1298828125,1.862,-3.281,-0.96
714,-14.09912109375,-31.06689453125,-49.072265625,-0.33642578125,-0.07421875,1.1298828125,1.862,-3.281,-0.96
715,-5.4931640625,-22.3388671875,-61.6455078125,-0.3173828125,-0.06640625,1.16796875,1.862,-3.281,-0.96
716,-5.4931640625,-22.3388671875,-61.6455078125,-0.3173828125,-0.06640625,1.16796875,1.862,-3.281,-0.96
717,-5.4931640625,-22.3388671875,-61.6455078125,-0.3173828125,-0.06640625,1.16796875,1.862,-3.281,-0.96
718,8.11767578125,-13.36669921875,-70.9228515625,-0.25439453125,-0.06494140625,1.19580078125,1.862,-3.281,-0.96
719,8.11767578125,-13.36669921875,-70.9228515625,-0.25439453125,-0.06494140625,1.19580078125,1.92,-3.214,-0.955
720,8.11767578125,-13.36669921875,-70.9228515625,-0.25439453125,-0.06494140625,1.19580078125,1.92,-3.214,-0.955
721,8.11767578125,-13.36669921875,-70.9228515625,-0.25439453125,-0.06494140625,1.19580078125,1.92,-3.214,-0.955
722,15.44189453125,-13.916015625,-76.23291015625,-0.22802734375,-0.09228515625,1.162109375,1.92,-3.214,-0.955
723,15.44189453125,-13.916015625,-76.23291015625,-0.22802734375,-0.09228515625,1.162109375,1.974,-3.155,-0.956
724,15.44189453125,-13.916015625,-76.23291015625,-0.22802734375,-0.09228515625,1.162109375,1.974,-3.155,-0.956
725,8.97216796875,-27.9541015625,-82.763671875,-0.2421875,-0.13720703125,1.12255859375,1.974,-3.155,-0.956
726,8.97216796875,-27.9541015625,-82.763671875,-0.2421875,-0.13720703125,1.12255859375,1.974,-3.155,-0.956
727,8.97216796875,-27.9541015625,-82.763671875,-0.2421875,-0.13720703125,1.12255859375,1.974,-3.155,-0.956
728,8.97216796875,-27.9541015625,-82.763671875,-0.2421875,-0.13720703125,1.12255859375,1.974,-3.155,-0.956
729,-2.62451171875,-48.15673828125,-95.27587890625,-0.20458984375,-0.13525390625,1.1396484375,2.07,-3.039,-0.929
730,-2.62451171875,-48.15673828125,-95.27587890625,-0.20458984375,-0.13525390625,1.1396484375,2.07,-3.039,-0.929
731,-2.62451171875,-48.15673828125,-95.27587890625,-0.20458984375,-0.13525390625,1.1396484375,2.07,-3.039,-0.929
732,-1.77001953125,-48.27880859375,-105.28564453125,-0.13037109375,-0.10986328125,1.169921875,2.07,-3.039,-0.929
733,-1.77001953125,-48.27880859375,-105.28564453125,-0.13037109375,-0.10986328125,1.169921875,2.07,-3.039,-0.929
734,-1.77001953125,-48.27880859375,-105.28564453125,-0.13037109375,-0.10986328125,1.169921875,2.164,-2.915,-0.949
735,-1.77001953125,-48.27880859375,-105.28564453125,-0.13037109375,-0.10986328125,1.169921875,2.164,-2.915,-0.949
736,8.36181640625,-37.7197265625,-111.14501953125,-0.08251953125,-0.1044921875,1.18896484375,2.164,-2.915,-0.949
737,8.36181640625,-37.7197265625,-111.14501953125,-0.08251953125,-0.1044921875,1.18896484375,2.164,-2.915,-0.949
738,8.36181640625,-37.7197265625,-111.14501953125,-0.08251953125,-0.1044921875,1.18896484375,2.164,-2.915,-0.949
739,13.24462890625,-38.57421875,-115.66162109375,-0.04150390625,-0.13134765625,1.15576171875,2.254,-2.752,-0.994
740,13.24462890625,-38.57421875,-115.66162109375,-0.04150390625,-0.13134765625,1.15576171875,2.254,-2.752,-0.994
741,13.24462890625,-38.57421875,-115.66162109375,-0.04150390625,-0.13134765625,1.15576171875,2.254,-2.752,-0.994
742,13.24462890625,-38.57421875,-115.66162109375,-0.04150390625,-0.13134765625,1.15576171875,2.254,-2.752,-0.994
743,7.6904296875,-48.4619140625,-118.59130859375,-0.0166015625,-0.154296875,1.07958984375,2.254,-2.752,-0.994
744,7.6904296875,-48.4619140625,-118.59130859375,-0.0166015625,-0.154296875,1.07958984375,2.254,-2.752,-0.994
745,7.6904296875,-48.4619140625,-118.59130859375,-0.0166015625,-0.154296875,1.07958984375,2.37,-2.525,-1.047
746,6.2255859375,-47.91259765625,-121.4599609375,0.0234375,-0.14404296875,1.0654296875,2.37,-2.525,-1.047
747,6.2255859375,-47.91259765625,-121.4599609375,0.0234375,-0.14404296875,1.0654296875,2.37,-2.525,-1.047
748,6.2255859375,-47.91259765625,-121.4599609375,0.0234375,-0.14404296875,1.0654296875,2.37,-2.525,-1.047
749,11.71875,-40.4052734375,-126.15966796875,0.08642578125,-0.126953125,1.09814453125,2.37,-2.525,-1.047
750,11.71875,-40.4052734375,-126.15966796875,0.08642578125,-0.126953125,1.09814453125,2.467,-2.328,-1.113
751,11.71875,-40.4052734375,-126.15966796875,0.08642578125,-0.126953125,1.09814453125,2.467,-2.328,-1.113
752,11.71875,-40.4052734375,-126.15966796875,0.08642578125,-0.126953125,1.09814453125,2.467,-2.328,-1.113
753,14.7705078125,-36.0107421875,-129.69970703125,0.13330078125,-0.119140625,1.0546875,2.467,-2.328,-1.113
754,14.7705078125,-36.0107421875,-129.69970703125,0.13330078125,-0.119140625,1.0546875,2.467,-2.328,-1.113
755,14.7705078125,-36.0107421875,-129.69970703125,0.13330078125,-0.119140625,1.0546875,2.55,-2.107,-1.219
756,10.55908203125,-37.78076171875,-126.15966796875,0.181640625,-0.083984375,0.99267578125,2.55,-2.107,-1.219
757,10.55908203125,-37.78076171875,-126.15966796875,0.181640625,-0.083984375,0.99267578125,2.55,-2.107,-1.219
758,10.55908203125,-37.78076171875,-126.15966796875,0.181640625,-0.083984375,0.99267578125,2.55,-2.107,-1.219
759,10.55908203125,-37.78076171875,-126.15966796875,0.181640625,-0.083984375,0.99267578125,2.55,-2.107,-1.219
760,12.14599609375,-32.16552734375,-120.361328125,0.25146484375,0.00146484375,1.009765625,2.611,-1.859,-1.321
761,12.14599609375,-32.16552734375,-120.361328125,0.25146484375,0.00146484375,1.009765625,2.611,-1.859,-1.321
762,12.14599609375,-32.16552734375,-120.361328125,0.25146484375,0.00146484375,1.009765625,2.611,-1.859,-1.321
763,17.4560546875,-20.8740234375,-109.55810546875,0.29931640625,0.0400390625,0.9931640625,2.611,-1.859,-1.321
764,17.4560546875,-20.8740234375,-109.55810546875,0.29931640625,0.0400390625,0.9931640625,2.611,-1.859,-1.321
765,17.4560546875,-20.8740234375,-109.55810546875,0.29931640625,0.0400390625,0.9931640625,2.663,-1.614,-1.407
766,17.4560546875,-20.8740234375,-109.55810546875,0.29931640625,0.0400390625,0.9931640625,2.663,-1.614,-1.407
767,12.939453125,-25.57373046875,-97.7783203125,0.26806640625,0.0458984375,0.89453125,2.663,-1.614,-1.407
768,12.939453125,-25.57373046875,-97.7783203125,0.26806640625,0.0458984375,0.89453125,2.663,-1.614,-1.407
769,12.939453125,-25.57373046875,-97.7783203125,0.26806640625,0.0458984375,0.89453125,2.663,-1.614,-1.407
770,0.1220703125,-29.35791015625,-90.9423828125,0.2060546875,0.06982421875,0.822265625,2.697,-1.384,-1.488
771,0.1220703125,-29.35791015625,-90.9423828125,0.2060546875,0.06982421875,0.822265625,2.697,-1.384,-1.488
772,0.1220703125,-29.35791015625,-90.9423828125,0.2060546875,0.06982421875,0.822265625,2.697,-1.384,-1.488
773,0.1220703125,-29.35791015625,-90.9423828125,0.2060546875,0.06982421875,0.822265625,2.697,-1.384,-1.488
774,0.06103515625,-9.21630859375,-87.46337890625,0.25,0.1279296875,0.85791015625,2.697,-1.384,-1.488
775,0.06103515625,-9.21630859375,-87.46337890625,0.25,0.1279296875,0.85791015625,2.697,-1.384,-1.488
776,0.06103515625,-9.21630859375,-87.46337890625,0.25,0.1279296875,0.85791015625,2.709,-1.13,-1.586
777,2.685546875,6.9580078125,-77.63671875,0.29150390625,0.15869140625,0.8955078125,2.709,-1.13,-1.586
778,2.685546875,6.9580078125,-77.63671875,0.29150390625,0.15869140625,0.8955078125,2.709,-1.13,-1.586
779,2.685546875,6.9580078125,-77.63671875,0.29150390625,0.15869140625,0.8955078125,2.709,-1.13,-1.586
780,-3.5400390625,-1.3427734375,-66.34521484375,0.26611328125,0.1708984375,0.8603515625,2.709,-1.13,-1.586
781,-3.5400390625,-1.3427734375,-66.34521484375,0.26611328125,0.1708984375,0.8603515625,2.718,-0.945,-1.651
782,-3.5400390625,-1.3427734375,-66.34521484375,0.26611328125,0.1708984375,0.8603515625,2.718,-0.945,-1.651
783,-3.5400390625,-1.3427734375,-66.34521484375,0.26611328125,0.1708984375,0.8603515625,2.718,-0.945,-1.651
784,-15.7470703125,-10.6201171875,-57.31201171875,0.201171875,0.19580078125,0.81201171875,2.718,-0.945,-1.651
785,-15.7470703125,-10.6201171875,-57.31201171875,0.201171875,0.19580078125,0.81201171875,2.718,-0.945,-1.651
786,-15.7470703125,-10.6201171875,-57.31201171875,0.201171875,0.19580078125,0.81201171875,2.718,-0.761,-1.71
787,-23.8037109375,-4.150390625,-50.4150390625,0.17529296875,0.2236328125,0.828125,2.718,-0.761,-1.71
788,-23.8037109375,-4.150390625,-50.4150390625,0.17529296875,0.2236328125,0.828125,2.718,-0.761,-1.71
789,-23.8037109375,-4.150390625,-50.4150390625,0.17529296875,0.2236328125,0.828125,2.718,-0.761,-1.71
790,-23.8037109375,-4.150390625,-50.4150390625,0.17529296875,0.2236328125,0.828125,2.718,-0.761,-1.71
791,-28.3203125,5.43212890625,-42.29736328125,0.1806640625,0.2509765625,0.91845703125,2.716,-0.599,-1.746
792,-28.3203125,5.43212890625,-42.29736328125,0.1806640625,0.2509765625,0.91845703125,2.716,-0.599,-1.746
793,-28.3203125,5.43212890625,-42.29736328125,0.1806640625,0.2509765625,0.91845703125,2.716,-0.599,-1.746
794,-28.3203125,5.43212890625,-42.29736328125,0.1806640625,0.2509765625,0.91845703125,2.716,-0.599,-1.746
795,-28.25927734375,17.9443359375,-30.70068359375,0.15673828125,0.24658203125,1.03564453125,2.716,-0.599,-1.746
796,-28.25927734375,17.9443359375,-30.70068359375,0.15673828125,0.24658203125,1.03564453125,2.716,-0.449,-1.751
797,-28.25927734375,17.9443359375,-30.70068359375,0.15673828125,0.24658203125,1.03564453125,2.716,-0.449,-1.751
798,-30.029296875,18.06640625,-21.42333984375,0.099609375,0.19970703125,1.1474609375,2.716,-0.449,-1.751
799,-30.029296875,18.06640625,-21.42333984375,0.099609375,0.19970703125,1.1474609375,2.716,-0.449,-1.751
800,-30.029296875,18.06640625,-21.42333984375,0.099609375,0.19970703125,1.1474609375,2.716,-0.449,-1.751
801,-37.41455078125,0.244140625,-17.08984375,0.0185546875,0.14306640625,1.2451171875,2.729,-0.31,-1.741
802,-37.41455078125,0.244140625,-17.08984375,0.0185546875,0.14306640625,1.2451171875,2.729,-0.31,-1.741
803,-37.41455078125,0.244140625,-17.08984375,0.0185546875,0.14306640625,1.2451171875,2.729,-0.31,-1.741
804,-37.41455078125,0.244140625,-17.08984375,0.0185546875,0.14306640625,1.2451171875,2.729,-0.31,-1.741
805,-35.33935546875,-12.3291015625,-16.90673828125,-0.02294921875,0.11279296875,1.30419921875,2.729,-0.31,-1.741
806,-35.33935546875,-12.3291015625,-16.90673828125,-0.02294921875,0.11279296875,1.30419921875,2.729,-0.31,-1.741
807,-35.33935546875,-12.3291015625,-16.90673828125,-0.02294921875,0.11279296875,1.30419921875,2.73,-0.159,-1.749
808,-29.052734375,-7.50732421875,-12.63427734375,-0.0595703125,0.0859375,1.34033203125,2.73,-0.159,-1.749
809,-29.052734375,-7.50732421875,-12.63427734375,-0.0595703125,0.0859375,1.34033203125,2.73,-0.159,-1.749
810,-29.052734375,-7.50732421875,-12.63427734375,-0.0595703125,0.0859375,1.34033203125,2.73,-0.159,-1.749
811,-29.052734375,-7.50732421875,-12.63427734375,-0.0595703125,0.0859375,1.34033203125,2.73,-0.159,-1.749
812,-17.39501953125,0.54931640625,-15.0146484375,-0.08447265625,0.09326171875,1.38671875,2.725,-0.048,-1.756
813,-17.39501953125,0.54931640625,-15.0146484375,-0.08447265625,0.09326171875,1.38671875,2.725,-0.048,-1.756
814,-17.39501953125,0.54931640625,-15.0146484375,-0.08447265625,0.09326171875,1.38671875,2.725,-0.048,-1.756
815,-17.39501953125,0.54931640625,-15.0146484375,-0.08447265625,0.09326171875,1.38671875,2.725,-0.048,-1.756
816,-13.0615234375,8.7890625,-22.94921875,-0.07080078125,0.10302734375,1.41015625,2.725,-0.048,-1.756
817,-13.0615234375,8.7890625,-22.94921875,-0.07080078125,0.10302734375,1.41015625,2.721,0.057,-1.758
818,-13.0615234375,8.7890625,-22.94921875,-0.07080078125,0.10302734375,1.41015625,2.721,0.057,-1.758
819,-14.0380859375,4.2724609375,-22.8271484375,-0.00341796875,0.1298828125,1.49658203125,2.721,0.057,-1.758
820,-14.0380859375,4.2724609375,-22.8271484375,-0.00341796875,0.1298828125,1.49658203125,2.721,0.057,-1.758
821,-14.0380859375,4.2724609375,-22.8271484375,-0.00341796875,0.1298828125,1.49658203125,2.721,0.057,-1.758
822,4.0283203125,-6.65283203125,-21.484375,0.03662109375,0.14013671875,1.5498046875,2.718,0.151,-1.76
823,4.0283203125,-6.65283203125,-21.484375,0.03662109375,0.14013671875,1.5498046875,2.718,0.151,-1.76
824,4.0283203125,-6.65283203125,-21.484375,0.03662109375,0.14013671875,1.5498046875,2.718,0.151,-1.76
825,4.0283203125,-6.65283203125,-21.484375,0.03662109375,0.14013671875,1.5498046875,2.718,0.151,-1.76
826,22.76611328125,-16.6015625,-20.5078125,0.04638671875,0.11865234375,1.5068359375,2.718,0.151,-1.76
827,22.76611328125,-16.6015625,-20.5078125,0.04638671875,0.11865234375,1.5068359375,2.711,0.226,-1.769
828,22.76611328125,-16.6015625,-20.5078125,0.04638671875,0.11865234375,1.5068359375,2.711,0.226,-1.769
829,22.76611328125,-16.6015625,-20.5078125,0.04638671875,0.11865234375,1.5068359375,2.711,0.226,-1.769
830,38.2080078125,-19.6533203125,-16.7236328125,0.02294921875,0.0859375,1.4482421875,2.711,0.226,-1.769
831,38.2080078125,-19.6533203125,-16.7236328125,0.02294921875,0.0859375,1.4482421875,2.711,0.226,-1.769
832,38.2080078125,-19.6533203125,-16.7236328125,0.02294921875,0.0859375,1.4482421875,2.711,0.226,-1.769
833,46.20361328125,-18.9208984375,-17.39501953125,-0.0068359375,0.0615234375,1.38818359375,2.687,0.265,-1.798
834,46.20361328125,-18.9208984375,-17.39501953125,-0.0068359375,0.0615234375,1.38818359375,2.687,0.265,-1.798
835,46.20361328125,-18.9208984375,-17.39501953125,-0.0068359375,0.0615234375,1.38818359375,2.687,0.265,-1.798
836,46.20361328125,-18.9208984375,-17.39501953125,-0.0068359375,0.0615234375,1.38818359375,2.687,0.265,-1.798
837,50.6591796875,-17.88330078125,-18.24951171875,-0.01611328125,0.041015625,1.3466796875,2.687,0.265,-1.798
838,50.6591796875,-17.88330078125,-18.24951171875,-0.01611328125,0.041015625,1.3466796875,2.648,0.258,-1.832
839,50.6591796875,-17.88330078125,-18.24951171875,-0.01611328125,0.041015625,1.3466796875,2.648,0.258,-1.832
840,64.14794921875,-23.193359375,-15.93017578125,-0.0244140625,0.0263671875,1.30615234375,2.648,0.258,-1.832
841,64.14794921875,-23.193359375,-15.93017578125,-0.0244140625,0.0263671875,1.30615234375,2.648,0.258,-1.832
842,64.14794921875,-23.193359375,-15.93017578125,-0.0244140625,0.0263671875,1.30615234375,2.648,0.258,-1.832
843,81.1767578125,-27.099609375,-13.3056640625,-0.041015625,0.03662109375,1.23291015625,2.593,0.213,-1.88
844,81.1767578125,-27.099609375,-13.3056640625,-0.041015625,0.03662109375,1.23291015625,2.593,0.213,-1.88
845,81.1767578125,-27.099609375,-13.3056640625,-0.041015625,0.03662109375,1.23291015625,2.593,0.213,-1.88
846,81.1767578125,-27.099609375,-13.3056640625,-0.041015625,0.03662109375,1.23291015625,2.593,0.213,-1.88
847,98.0224609375,-16.4794921875,-11.5966796875,-0.048828125,0.04150390625,1.17529296875,2.593,0.213,-1.88
848,98.0224609375,-16.4794921875,-11.5966796875,-0.048828125,0.04150390625,1.17529296875,2.593,0.213,-1.88
849,98.0224609375,-16.4794921875,-11.5966796875,-0.048828125,0.04150390625,1.17529296875,2.515,0.106,-1.941
850,98.0224609375,-16.4794921875,-11.5966796875,-0.048828125,0.04150390625,1.17529296875,2.515,0.106,-1.941
851,115.90576171875,-2.50244140625,-8.72802734375,-0.0224609375,0.07470703125,1.1650390625,2.515,0.106,-1.941
852,115.90576171875,-2.50244140625,-8.72802734375,-0.0224609375,0.07470703125,1.1650390625,2.515,0.106,-1.941
853,115.90576171875,-2.50244140625,-8.72802734375,-0.0224609375,0.07470703125,1.1650390625,2.515,0.106,-1.941
854,130.06591796875,2.0751953125,-4.150390625,0.00439453125,0.091796875,1.13232421875,2.47,-0.055,-1.962
855,130.06591796875,2.0751953125,-4.150390625,0.00439453125,0.091796875,1.13232421875,2.47,-0.055,-1.962
856,130.06591796875,2.0751953125,-4.150390625,0.00439453125,0.091796875,1.13232421875,2.47,-0.055,-1.962
857,130.06591796875,2.0751953125,-4.150390625,0.00439453125,0.091796875,1.13232421875,2.47,-0.055,-1.962
858,130.9814453125,-13.12255859375,0.54931640625,-0.01513671875,0.08935546875,1.05029296875,2.47,-0.055,-1.962
859,130.9814453125,-13.12255859375,0.54931640625,-0.01513671875,0.08935546875,1.05029296875,2.421,-0.269,-1.963
860,130.9814453125,-13.12255859375,0.54931640625,-0.01513671875,0.08935546875,1.05029296875,2.421,-0.269,-1.963
861,120.78857421875,-34.48486328125,4.0283203125,-0.0458984375,0.115234375,0.9404296875,2.421,-0.269,-1.963
862,120.78857421875,-34.48486328125,4.0283203125,-0.0458984375,0.115234375,0.9404296875,2.421,-0.269,-1.963
863,120.78857421875,-34.48486328125,4.0283203125,-0.0458984375,0.115234375,0.9404296875,2.421,-0.269,-1.963
864,120.78857421875,-34.48486328125,4.0283203125,-0.0458984375,0.115234375,0.9404296875,2.421,-0.269,-1.963
865,111.083984375,-43.45703125,4.69970703125,-0.08984375,0.1416015625,0.85791015625,2.346,-0.553,-1.963
866,111.083984375,-43.45703125,4.69970703125,-0.08984375,0.1416015625,0.85791015625,2.346,-0.553,-1.963
867,111.083984375,-43.45703125,4.69970703125,-0.08984375,0.1416015625,0.85791015625,2.346,-0.553,-1.963
868,107.23876953125,-43.701171875,3.84521484375,-0.10107421875,0.15576171875,0.7919921875,2.346,-0.553,-1.963
869,107.23876953125,-43.701171875,3.84521484375,-0.10107421875,0.15576171875,0.7919921875,2.346,-0.553,-1.963
870,107.23876953125,-43.701171875,3.84521484375,-0.10107421875,0.15576171875,0.7919921875,2.251,-0.794,-1.966
871,107.23876953125,-43.701171875,3.84521484375,-0.10107421875,0.15576171875,0.7919921875,2.251,-0.794,-1.966
872,104.736328125,-40.71044921875,6.77490234375,-0.1171875,0.171875,0.7412109375,2.251,-0.794,-1.966
873,104.736328125,-40.71044921875,6.77490234375,-0.1171875,0.171875,0.7412109375,2.251,-0.794,-1.966
874,104.736328125,-40.71044921875,6.77490234375,-0.1171875,0.171875,0.7412109375,2.251,-0.794,-1.966
875,107.36083984375,-36.62109375,7.2021484375,-0.1455078125,0.201171875,0.68701171875,2.146,-1.038,-1.966
876,107.36083984375,-36.62109375,7.2021484375,-0.1455078125,0.201171875,0.68701171875,2.146,-1.038,-1.966
877,107.36083984375,-36.62109375,7.2021484375,-0.1455078125,0.201171875,0.68701171875,2.146,-1.038,-1.966
878,107.36083984375,-36.62109375,7.2021484375,-0.1455078125,0.201171875,0.68701171875,2.146,-1.038,-1.966
879,108.94775390625,-32.89794921875,6.53076171875,-0.15087890625,0.22314453125,0.61865234375,2.146,-1.038,-1.966
880,108.94775390625,-32.89794921875,6.53076171875,-0.15087890625,0.22314453125,0.61865234375,2.033,-1.277,-1.944
881,108.94775390625,-32.89794921875,6.53076171875,-0.15087890625,0.22314453125,0.61865234375,2.033,-1.277,-1.944
882,102.11181640625,-41.015625,5.31005859375,-0.15869140625,0.232421875,0.55810546875,2.033,-1.277,-1.944
883,102.11181640625,-41.015625,5.31005859375,-0.15869140625,0.232421875,0.55810546875,2.033,-1.277,-1.944
884,102.11181640625,-41.015625,5.31005859375,-0.15869140625,0.232421875,0.55810546875,2.033,-1.277,-1.944
885,86.36474609375,-59.50927734375,3.60107421875,-0.15966796875,0.2216796875,0.52978515625,1.923,-1.513,-1.924
886,86.36474609375,-59.50927734375,3.60107421875,-0.15966796875,0.2216796875,0.52978515625,1.923,-1.513,-1.924
887,86.36474609375,-59.50927734375,3.60107421875,-0.15966796875,0.2216796875,0.52978515625,1.923,-1.513,-1.924
888,86.36474609375,-59.50927734375,3.60107421875,-0.15966796875,0.2216796875,0.52978515625,1.923,-1.513,-1.924
889,75.74462890625,-77.45361328125,0.732421875,-0.1494140625,0.2509765625,0.4921875,1.923,-1.513,-1.924
890,75.74462890625,-77.45361328125,0.732421875,-0.1494140625,0.2509765625,0.4921875,1.797,-1.734,-1.897
891,75.74462890625,-77.45361328125,0.732421875,-0.1494140625,0.2509765625,0.4921875,1.797,-1.734,-1.897
892,69.580078125,-81.60400390625,0.732421875,-0.13818359375,0.28125,0.4013671875,1.797,-1.734,-1.897
893,69.580078125,-81.60400390625,0.732421875,-0.13818359375,0.28125,0.4013671875,1.797,-1.734,-1.897
894,69.580078125,-81.60400390625,0.732421875,-0.13818359375,0.28125,0.4013671875,1.797,-1.734,-1.897
895,69.580078125,-81.60400390625,0.732421875,-0.13818359375,0.28125,0.4013671875,1.797,-1.734,-1.897
896,62.43896484375,-72.44873046875,1.3427734375,-0.16259765625,0.33642578125,0.28271484375,1.595,-1.964,-1.871
897,62.43896484375,-72.44873046875,1.3427734375,-0.16259765625,0.33642578125,0.28271484375,1.595,-1.964,-1.871
898,62.43896484375,-72.44873046875,1.3427734375,-0.16259765625,0.33642578125,0.28271484375,1.595,-1.964,-1.871
899,57.2509765625,-45.0439453125,2.25830078125,-0.16259765625,0.33642578125,0.28271484375,1.595,-1.964,-1.871
900,57.2509765625,-45.0439453125,2.25830078125,-0.20166015625,0.38232421875,0.17529296875,1.595,-1.964,-1.871
901,57.2509765625,-45.0439453125,2.25830078125,-0.20166015625,0.38232421875,0.17529296875,1.426,-2.126,-1.88
902,57.2509765625,-45.0439453125,2.25830078125,-0.20166015625,0.38232421875,0.17529296875,1.426,-2.126,-1.88
903,46.630859375,-17.15087890625,0.3662109375,-0.205078125,0.38916015625,0.1279296875,1.426,-2.126,-1.88
904,46.630859375,-17.15087890625,0.3662109375,-0.205078125,0.38916015625,0.1279296875,1.426,-2.126,-1.88
905,46.630859375,-17.15087890625,0.3662109375,-0.205078125,0.38916015625,0.1279296875,1.426,-2.126,-1.88
906,27.4658203125,-11.53564453125,0.91552734375,-0.19873046875,0.392578125,0.0869140625,1.299,-2.265,-1.87
907,27.4658203125,-11.53564453125,0.91552734375,-0.19873046875,0.392578125,0.0869140625,1.299,-2.265,-1.87
908,27.4658203125,-11.53564453125,0.91552734375,-0.19873046875,0.392578125,0.0869140625,1.299,-2.265,-1.87
909,27.4658203125,-11.53564453125,0.91552734375,-0.19873046875,0.392578125,0.0869140625,1.299,-2.265,-1.87
910,6.2255859375,-19.71435546875,5.31005859375,-0.2119140625,0.43603515625,0.06787109375,1.299,-2.265,-1.87
911,6.2255859375,-19.71435546875,5.31005859375,-0.2119140625,0.43603515625,0.06787109375,1.221,-2.37,-1.865
912,6.2255859375,-19.71435546875,5.31005859375,-0.2119140625,0.43603515625,0.06787109375,1.221,-2.37,-1.865
913,-11.53564453125,-17.88330078125,6.9580078125,-0.2451171875,0.48779296875,0.07080078125,1.221,-2.37,-1.865
914,-11.53564453125,-17.88330078125,6.9580078125,-0.2451171875,0.48779296875,0.07080078125,1.221,-2.37,-1.865
915,-11.53564453125,-17.88330078125,6.9580078125,-0.2451171875,0.48779296875,0.07080078125,1.221,-2.37,-1.865
916,-22.3388671875,-2.99072265625,5.0048828125,-0.25830078125,0.5234375,0.09033203125,1.157,-2.431,-1.879
917,-22.3388671875,-2.99072265625,5.0048828125,-0.25830078125,0.5234375,0.09033203125,1.157,-2.431,-1.879
918,-22.3388671875,-2.99072265625,5.0048828125,-0.25830078125,0.5234375,0.09033203125,1.157,-2.431,-1.879
919,-22.3388671875,-2.99072265625,5.0048828125,-0.25830078125,0.5234375,0.09033203125,1.157,-2.431,-1.879
920,-33.02001953125,13.00048828125,3.2958984375,-0.2177734375,0.53076171875,0.146484375,1.157,-2.431,-1.879
921,-33.02001953125,13.00048828125,3.2958984375,-0.2177734375,0.53076171875,0.146484375,1.111,-2.459,-1.893
922,-33.02001953125,13.00048828125,3.2958984375,-0.2177734375,0.53076171875,0.146484375,1.111,-2.459,-1.893
923,-40.283203125,29.96826171875,7.01904296875,-0.1708984375,0.53466796875,0.21484375,1.111,-2.459,-1.893
924,-40.283203125,29.96826171875,7.01904296875,-0.1708984375,0.53466796875,0.21484375,1.111,-2.459,-1.893
925,-40.283203125,29.96826171875,7.01904296875,-0.1708984375,0.53466796875,0.21484375,1.111,-2.459,-1.893
926,-40.283203125,29.96826171875,7.01904296875,-0.1708984375,0.53466796875,0.21484375,1.111,-2.459,-1.893
927,-49.74365234375,41.8701171875,12.939453125,-0.1669921875,0.52880859375,0.27880859375,1.11,-2.435,-1.906
928,-49.74365234375,41.8701171875,12.939453125,-0.1669921875,0.52880859375,0.27880859375,1.11,-2.435,-1.906
929,-49.74365234375,41.8701171875,12.939453125,-0.1669921875,0.52880859375,0.27880859375,1.11,-2.435,-1.906
930,-63.65966796875,41.259765625,15.31982421875,-0.19970703125,0.49658203125,0.314453125,1.11,-2.435,-1.906
931,-63.65966796875,41.259765625,15.31982421875,-0.19970703125,0.49658203125,0.314453125,1.142,-2.392,-1.914
932,-63.65966796875,41.259765625,15.31982421875,-0.19970703125,0.49658203125,0.314453125,1.142,-2.392,-1.914
933,-63.65966796875,41.259765625,15.31982421875,-0.19970703125,0.49658203125,0.314453125,1.142,-2.392,-1.914
934,-83.984375,33.99658203125,15.31982421875,-0.1982421875,0.4501953125,0.33349609375,1.142,-2.392,-1.914
935,-83.984375,33.99658203125,15.31982421875,-0.1982421875,0.4501953125,0.33349609375,1.142,-2.392,-1.914
936,-83.984375,33.99658203125,15.31982421875,-0.1982421875,0.4501953125,0.33349609375,1.142,-2.392,-1.914
937,-105.224609375,27.34375,16.54052734375,-0.17333984375,0.42822265625,0.400390625,1.204,-2.288,-1.972
938,-105.224609375,27.34375,16.54052734375,-0.17333984375,0.42822265625,0.400390625,1.204,-2.288,-1.972
939,-105.224609375,27.34375,16.54052734375,-0.17333984375,0.42822265625,0.400390625,1.204,-2.288,-1.972
940,-105.224609375,27.34375,16.54052734375,-0.17333984375,0.42822265625,0.400390625,1.204,-2.288,-1.972
941,-110.9619140625,40.52734375,20.20263671875,-0.1220703125,0.40576171875,0.517578125,1.204,-2.288,-1.972
942,-110.9619140625,40.52734375,20.20263671875,-0.1220703125,0.40576171875,0.517578125,1.261,-2.132,-2.015
943,-110.9619140625,40.52734375,20.20263671875,-0.1220703125,0.40576171875,0.517578125,1.261,-2.132,-2.015
944,-113.70849609375,54.26025390625,28.1982421875,-0.1142578125,0.32958984375,0.66015625,1.261,-2.132,-2.015
945,-113.70849609375,54.26025390625,28.1982421875,-0.1142578125,0.32958984375,0.66015625,1.261,-2.132,-2.015
946,-113.70849609375,54.26025390625,28.1982421875,-0.1142578125,0.32958984375,0.66015625,1.261,-2.132,-2.015
947,-125.67138671875,35.400390625,34.66796875,-0.2138671875,0.2275390625,0.765625,1.35,-1.953,-2.064
948,-125.67138671875,35.400390625,34.66796875,-0.2138671875,0.2275390625,0.765625,1.35,-1.953,-2.064
949,-125.67138671875,35.400390625,34.66796875,-0.2138671875,0.2275390625,0.765625,1.35,-1.953,-2.064
950,-125.67138671875,35.400390625,34.66796875,-0.2138671875,0.2275390625,0.765625,1.35,-1.953,-2.064
951,-133.4228515625,16.54052734375,30.029296875,-0.2978515625,0.1943359375,0.7900390625,1.35,-1.953,-2.064
952,-133.4228515625,16.54052734375,30.029296875,-0.2978515625,0.1943359375,0.7900390625,1.445,-1.732,-2.095
953,-133.4228515625,16.54052734375,30.029296875,-0.2978515625,0.1943359375,0.7900390625,1.445,-1.732,-2.095
954,-123.291015625,45.166015625,25.2685546875,-0.24658203125,0.208984375,0.88330078125,1.445,-1.732,-2.095
955,-123.291015625,45.166015625,25.2685546875,-0.24658203125,0.208984375,0.88330078125,1.445,-1.732,-2.095
956,-123.291015625,45.166015625,25.2685546875,-0.24658203125,0.208984375,0.88330078125,1.445,-1.732,-2.095
957,-123.291015625,45.166015625,25.2685546875,-0.24658203125,0.208984375,0.88330078125,1.543,-1.498,-2.128
958,-121.7041015625,54.5654296875,27.16064453125,-0.22509765625,0.16796875,0.9931640625,1.543,-1.498,-2.128
959,-121.7041015625,54.5654296875,27.16064453125,-0.22509765625,0.16796875,0.9931640625,1.543,-1.498,-2.128
960,-121.7041015625,54.5654296875,27.16064453125,-0.22509765625,0.16796875,0.9931640625,1.543,-1.498,-2.128
961,-138.7939453125,20.01953125,25.146484375,-0.26513671875,0.1435546875,1.06982421875,1.543,-1.498,-2.128
962,-138.7939453125,20.01953125,25.146484375,-0.26513671875,0.1435546875,1.06982421875,1.659,-1.249,-2.148
963,-138.7939453125,20.01953125,25.146484375,-0.26513671875,0.1435546875,1.06982421875,1.659,-1.249,-2.148
964,-138.7939453125,20.01953125,25.146484375,-0.26513671875,0.1435546875,1.06982421875,1.659,-1.249,-2.148
965,-146.66748046875,3.23486328125,20.08056640625,-0.28125,0.14501953125,1.16015625,1.659,-1.249,-2.148
966,-146.66748046875,3.23486328125,20.08056640625,-0.28125,0.14501953125,1.16015625,1.659,-1.249,-2.148
967,-146.66748046875,3.23486328125,20.08056640625,-0.28125,0.14501953125,1.16015625,1.659,-1.249,-2.148
968,-146.66748046875,3.23486328125,20.08056640625,-0.28125,0.14501953125,1.16015625,1.659,-1.249,-2.148
969,-131.28662109375,20.93505859375,19.83642578125,-0.2724609375,0.09765625,1.337890625,1.659,-1.249,-2.148
970,-131.28662109375,20.93505859375,19.83642578125,-0.2724609375,0.09765625,1.337890625,1.659,-1.249,-2.148
971,-131.28662109375,20.93505859375,19.83642578125,-0.2724609375,0.09765625,1.337890625,1.659,-1.249,-2.148
972,-131.28662109375,20.93505859375,19.83642578125,-0.2724609375,0.09765625,1.337890625,1.659,-1.249,-2.148
973,-98.69384765625,44.189453125,18.73779296875,-0.30615234375,-0.00048828125,1.41357421875,1.659,-1.249,-2.148
974,-98.69384765625,44.189453125,18.73779296875,-0.30615234375,-0.00048828125,1.41357421875,1.859,-0.633,-2.219
975,-98.69384765625,44.189453125,18.73779296875,-0.30615234375,-0.00048828125,1.41357421875,1.859,-0.633,-2.219
976,-78.9794921875,49.74365234375,13.61083984375,-0.29248046875,-0.01123046875,1.431640625,1.859,-0.633,-2.219
977,-78.9794921875,49.74365234375,13.61083984375,-0.29248046875,-0.01123046875,1.431640625,1.859,-0.633,-2.219
978,-78.9794921875,49.74365234375,13.61083984375,-0.29248046875,-0.01123046875,1.431640625,1.859,-0.633,-2.219
979,-64.75830078125,53.22265625,8.97216796875,-0.2177734375,0.0234375,1.4794921875,1.969,-0.41,-2.213
980,-64.75830078125,53.22265625,8.97216796875,-0.2177734375,0.0234375,1.4794921875,1.969,-0.41,-2.213
981,-64.75830078125,53.22265625,8.97216796875,-0.2177734375,0.0234375,1.4794921875,1.969,-0.41,-2.213
982,-64.75830078125,53.22265625,8.97216796875,-0.2177734375,0.0234375,1.4794921875,1.969,-0.41,-2.213
983,-59.14306640625,41.19873046875,9.82666015625,-0.17431640625,0.01611328125,1.45166015625,1.969,-0.41,-2.213
984,-59.14306640625,41.19873046875,9.82666015625,-0.17431640625,0.01611328125,1.45166015625,2.081,-0.232,-2.172
985,-59.14306640625,41.19873046875,9.82666015625,-0.17431640625,0.01611328125,1.45166015625,2.081,-0.232,-2.172
986,-58.28857421875,19.287109375,7.8125,-0.20166015625,0.02392578125,1.34033203125,2.081,-0.232,-2.172
987,-58.28857421875,19.287109375,7.8125,-0.20166015625,0.02392578125,1.34033203125,2.081,-0.232,-2.172
988,-58.28857421875,19.287109375,7.8125,-0.20166015625,0.02392578125,1.34033203125,2.081,-0.232,-2.172
989,-58.28857421875,19.287109375,7.8125,-0.20166015625,0.02392578125,1.34033203125,2.19,-0.086,-2.124
990,-52.91748046875,22.8271484375,6.04248046875,-0.2041015625,0.0361328125,1.26416015625,2.19,-0.086,-2.124
991,-52.91748046875,22.8271484375,6.04248046875,-0.2041015625,0.0361328125,1.26416015625,2.19,-0.086,-2.124
992,-52.91748046875,22.8271484375,6.04248046875,-0.2041015625,0.0361328125,1.26416015625,2.19,-0.086,-2.124
993,-46.69189453125,31.982421875,5.31005859375,-0.20263671875,0.01611328125,1.28271484375,2.19,-0.086,-2.124
994,-46.69189453125,31.982421875,5.31005859375,-0.20263671875,0.01611328125,1.28271484375,2.266,0.053,-2.068
995,-46.69189453125,31.982421875,5.31005859375,-0.20263671875,0.01611328125,1.28271484375,2.266,0.053,-2.068
996,-46.69189453125,31.982421875,5.31005859375,-0.20263671875,0.01611328125,1.28271484375,2.266,0.053,-2.068
997,-41.93115234375,26.611328125,1.953125,-0.21142578125,-0.01953125,1.27734375,2.266,0.053,-2.068
998,-41.93115234375,26.611328125,1.953125,-0.21142578125,-0.01953125,1.27734375,2.266,0.053,-2.068
999,-41.93115234375,26.611328125,1.953125,-0.21142578125,-0.01953125,1.27734375,2.266,0.053,-2.068
1000,-39.794921875,17.76123046875,-3.23486328125,-0.220703125,-0.02490234375,1.22021484375,2.369,0.185,-2.029
1001,-39.794921875,17.76123046875,-3.23486328125,-0.220703125,-0.02490234375,1.22021484375,2.369,0.185,-2.029
1002,-39.794921875,17.76123046875,-3.23486328125,-0.220703125,-0.02490234375,1.22021484375,2.369,0.185,-2.029
1003,-39.794921875,17.76123046875,-3.23486328125,-0.220703125,-0.02490234375,1.22021484375,2.369,0.185,-2.029
1004,-34.36279296875,25.390625,-7.50732421875,-0.2060546875,-0.01171875,1.19873046875,2.369,0.185,-2.029
1005,-34.36279296875,25.390625,-7.50732421875,-0.2060546875,-0.01171875,1.19873046875,2.437,0.278,-1.984
1006,-34.36279296875,25.390625,-7.50732421875,-0.2060546875,-0.01171875,1.19873046875,2.437,0.278,-1.984
1007,-34.36279296875,25.390625,-7.50732421875,-0.2060546875,-0.01171875,1.19873046875,2.437,0.278,-1.984
1008,-26.2451171875,37.109375,-10.498046875,-0.171875,-0.00830078125,1.2490234375,2.437,0.278,-1.984
1009,-26.2451171875,37.109375,-10.498046875,-0.171875,-0.00830078125,1.2490234375,2.437,0.278,-1.984
1010,-26.2451171875,37.109375,-10.498046875,-0.171875,-0.00830078125,1.2490234375,2.502,0.367,-1.934
1011,-19.47021484375,37.78076171875,-13.3056640625,-0.14404296875,-0.01318359375,1.29541015625,2.502,0.367,-1.934
1012,-19.47021484375,37.78076171875,-13.3056640625,-0.14404296875,-0.01318359375,1.29541015625,2.502,0.367,-1.934
1013,-19.47021484375,37.78076171875,-13.3056640625,-0.14404296875,-0.01318359375,1.29541015625,2.502,0.367,-1.934
1014,-19.47021484375,37.78076171875,-13.3056640625,-0.14404296875,-0.01318359375,1.29541015625,2.502,0.367,-1.934
1015,-14.83154296875,32.53173828125,-14.83154296875,-0.1279296875,-0.00537109375,1.3427734375,2.502,0.367,-1.934
1016,-14.83154296875,32.53173828125,-14.83154296875,-0.1279296875,-0.00537109375,1.3427734375,2.587,0.456,-1.849
1017,-14.83154296875,32.53173828125,-14.83154296875,-0.1279296875,-0.00537109375,1.3427734375,2.587,0.456,-1.849
1018,-8.60595703125,28.3203125,-15.869140625,-0.0908203125,0.0126953125,1.39990234375,2.587,0.456,-1.849
1019,-8.60595703125,28.3203125,-15.869140625,-0.0908203125,0.0126953125,1.39990234375,2.587,0.456,-1.849
1020,-8.60595703125,28.3203125,-15.869140625,-0.0908203125,0.0126953125,1.39990234375,2.587,0.456,-1.849
1021,0.9765625,24.658203125,-15.5029296875,-0.06201171875,0.04296875,1.4609375,2.645,0.519,-1.794
1022,0.9765625,24.658203125,-15.5029296875,-0.06201171875,0.04296875,1.4609375,2.645,0.519,-1.794
1023,0.9765625,24.658203125,-15.5029296875,-0.06201171875,0.04296875,1.4609375,2.645,0.519,-1.794
1024,0.9765625,24.658203125,-15.5029296875,-0.06201171875,0.04296875,1.4609375,2.645,0.519,-1.794
1025,13.85498046875,23.25439453125,-13.5498046875,-0.05419921875,0.0517578125,1.51904296875,2.645,0.519,-1.794
1026,13.85498046875,23.25439453125,-13.5498046875,-0.05419921875,0.0517578125,1.51904296875,2.712,0.562,-1.756
1027,13.85498046875,23.25439453125,-13.5498046875,-0.05419921875,0.0517578125,1.51904296875,2.712,0.562,-1.756
1028,13.85498046875,23.25439453125,-13.5498046875,-0.05419921875,0.0517578125,1.51904296875,2.712,0.562,-1.756
1029,28.4423828125,24.658203125,-16.05224609375,-0.0302734375,0.0537109375,1.5966796875,2.712,0.562,-1.756
1030,28.4423828125,24.658203125,-16.05224609375,-0.0302734375,0.0537109375,1.5966796875,2.712,0.562,-1.756
1031,28.4423828125,24.658203125,-16.05224609375,-0.0302734375,0.0537109375,1.5966796875,2.774,0.595,-1.716
1032,38.818359375,20.6298828125,-16.66259765625,0.005859375,0.025390625,1.65234375,2.774,0.595,-1.716
1033,38.818359375,20.6298828125,-16.66259765625,0.005859375,0.025390625,1.65234375,2.774,0.595,-1.716
1034,38.818359375,20.6298828125,-16.66259765625,0.005859375,0.025390625,1.65234375,2.774,0.595,-1.716
1035,38.818359375,20.6298828125,-16.66259765625,0.005859375,0.025390625,1.65234375,2.774,0.595,-1.716
1036,54.50439453125,9.6435546875,-13.5498046875,0.0361328125,0.03076171875,1.6669921875,2.774,0.595,-1.716
1037,54.50439453125,9.6435546875,-13.5498046875,0.0361328125,0.03076171875,1.6669921875,2.814,0.596,-1.67
1038,54.50439453125,9.6435546875,-13.5498046875,0.0361328125,0.03076171875,1.6669921875,2.814,0.596,-1.67
1039,70.37353515625,2.62451171875,-9.1552734375,0.03466796875,0.0302734375,1.6005859375,2.814,0.596,-1.67
1040,70.37353515625,2.62451171875,-9.1552734375,0.03466796875,0.0302734375,1.6005859375,2.814,0.596,-1.67
1041,70.37353515625,2.62451171875,-9.1552734375,0.03466796875,0.0302734375,1.6005859375,2.814,0.596,-1.67
1042,70.37353515625,2.62451171875,-9.1552734375,0.03466796875,0.0302734375,1.6005859375,2.849,0.552,-1.667
1043,83.67919921875,-1.15966796875,-7.01904296875,0.02392578125,0.0322265625,1.51513671875,2.849,0.552,-1.667
1044,83.67919921875,-1.15966796875,-7.01904296875,0.02392578125,0.0322265625,1.51513671875,2.849,0.552,-1.667
1045,83.67919921875,-1.15966796875,-7.01904296875,0.02392578125,0.0322265625,1.51513671875,2.849,0.552,-1.667
1046,92.8955078125,-5.55419921875,-4.21142578125,0.03955078125,0.015625,1.4619140625,2.849,0.552,-1.667
1047,92.8955078125,-5.55419921875,-4.21142578125,0.03955078125,0.015625,1.4619140625,2.851,0.473,-1.655
1048,92.8955078125,-5.55419921875,-4.21142578125,0.03955078125,0.015625,1.4619140625,2.851,0.473,-1.655
1049,92.8955078125,-5.55419921875,-4.21142578125,0.03955078125,0.015625,1.4619140625,2.851,0.473,-1.655
1050,99.79248046875,-16.11328125,-0.54931640625,0.03515625,-0.00390625,1.40185546875,2.851,0.473,-1.655
1051,99.79248046875,-16.11328125,-0.54931640625,0.03515625,-0.00390625,1.40185546875,2.851,0.473,-1.655
1052,99.79248046875,-16.11328125,-0.54931640625,0.03515625,-0.00390625,1.40185546875,2.837,0.347,-1.676
1053,106.75048828125,-26.30615234375,1.220703125,0.02734375,-0.0126953125,1.318359375,2.837,0.347,-1.676
1054,106.75048828125,-26.30615234375,1.220703125,0.02734375,-0.0126953125,1.318359375,2.837,0.347,-1.676
1055,106.75048828125,-26.30615234375,1.220703125,0.02734375,-0.0126953125,1.318359375,2.837,0.347,-1.676
1056,106.75048828125,-26.30615234375,1.220703125,0.02734375,-0.0126953125,1.318359375,2.837,0.347,-1.676
1057,112.97607421875,-34.66796875,3.84521484375,0.017578125,-0.0126953125,1.208984375,2.837,0.347,-1.676
1058,112.97607421875,-34.66796875,3.84521484375,0.017578125,-0.0126953125,1.208984375,2.787,0.146,-1.72
1059,112.97607421875,-34.66796875,3.84521484375,0.017578125,-0.0126953125,1.208984375,2.787,0.146,-1.72
1060,112.97607421875,-34.66796875,3.84521484375,0.017578125,-0.0126953125,1.208984375,2.787,0.146,-1.72
1061,118.10302734375,-42.54150390625,7.2021484375,-0.0068359375,-0.03515625,1.0810546875,2.787,0.146,-1.72
1062,118.10302734375,-42.54150390625,7.2021484375,-0.0068359375,-0.03515625,1.0810546875,2.787,0.146,-1.72
1063,118.10302734375,-42.54150390625,7.2021484375,-0.0068359375,-0.03515625,1.0810546875,2.718,-0.055,-1.758
1064,119.56787109375,-53.3447265625,9.765625,-0.03271484375,-0.05224609375,0.95703125,2.718,-0.055,-1.758
1065,119.56787109375,-53.3447265625,9.765625,-0.03271484375,-0.05224609375,0.95703125,2.718,-0.055,-1.758
1066,119.56787109375,-53.3447265625,9.765625,-0.03271484375,-0.05224609375,0.95703125,2.718,-0.055,-1.758
1067,121.2158203125,-54.5654296875,13.3056640625,-0.06640625,-0.0419921875,0.85986328125,2.718,-0.055,-1.758
1068,121.2158203125,-54.5654296875,13.3056640625,-0.06640625,-0.0419921875,0.85986328125,2.62,-0.295,-1.802
1069,121.2158203125,-54.5654296875,13.3056640625,-0.06640625,-0.0419921875,0.85986328125,2.62,-0.295,-1.802
1070,121.2158203125,-54.5654296875,13.3056640625,-0.06640625,-0.0419921875,0.85986328125,2.62,-0.295,-1.802
1071,129.150390625,-46.0205078125,14.22119140625,-0.08984375,-0.009765625,0.79296875,2.62,-0.295,-1.802
1072,129.150390625,-46.0205078125,14.22119140625,-0.08984375,-0.009765625,0.79296875,2.62,-0.295,-1.802
1073,129.150390625,-46.0205078125,14.22119140625,-0.08984375,-0.009765625,0.79296875,2.496,-0.553,-1.849
1074,130.9814453125,-38.4521484375,12.939453125,-0.09814453125,0.03662109375,0.73046875,2.496,-0.553,-1.849
1075,130.9814453125,-38.4521484375,12.939453125,-0.09814453125,0.03662109375,0.73046875,2.496,-0.553,-1.849
1076,130.9814453125,-38.4521484375,12.939453125,-0.09814453125,0.03662109375,0.73046875,2.496,-0.553,-1.849
1077,130.9814453125,-38.4521484375,12.939453125,-0.09814453125,0.03662109375,0.73046875,2.496,-0.553,-1.849
1078,131.7138671875,-34.97314453125,11.16943359375,-0.0771484375,0.1240234375,0.72265625,2.496,-0.553,-1.849
1079,131.7138671875,-34.97314453125,11.16943359375,-0.0771484375,0.1240234375,0.72265625,2.341,-0.88,-1.868
1080,131.7138671875,-34.97314453125,11.16943359375,-0.0771484375,0.1240234375,0.72265625,2.341,-0.88,-1.868
1081,131.7138671875,-34.97314453125,11.16943359375,-0.0771484375,0.1240234375,0.72265625,2.341,-0.88,-1.868
1082,134.765625,-33.447265625,15.2587890625,-0.07470703125,0.1982421875,0.7080078125,2.341,-0.88,-1.868
1083,134.765625,-33.447265625,15.2587890625,-0.07470703125,0.1982421875,0.7080078125,2.341,-0.88,-1.868
1084,134.765625,-33.447265625,15.2587890625,-0.07470703125,0.1982421875,0.7080078125,2.219,-1.183,-1.851
1085,132.32421875,-38.63525390625,18.12744140625,-0.11962890625,0.232421875,0.65185546875,2.219,-1.183,-1.851
1086,132.32421875,-38.63525390625,18.12744140625,-0.11962890625,0.232421875,0.65185546875,2.219,-1.183,-1.851
1087,132.32421875,-38.63525390625,18.12744140625,-0.11962890625,0.232421875,0.65185546875,2.219,-1.183,-1.851
1088,125.732421875,-46.08154296875,14.95361328125,-0.15185546875,0.28076171875,0.59033203125,2.219,-1.183,-1.851
1089,125.732421875,-46.08154296875,14.95361328125,-0.15185546875,0.28076171875,0.59033203125,2.094,-1.492,-1.827
1090,125.732421875,-46.08154296875,14.95361328125,-0.15185546875,0.28076171875,0.59033203125,2.094,-1.492,-1.827
1091,125.732421875,-46.08154296875,14.95361328125,-0.15185546875,0.28076171875,0.59033203125,2.094,-1.492,-1.827
1092,126.5869140625,-43.88427734375,13.73291015625,-0.1669921875,0.32177734375,0.54150390625,2.094,-1.492,-1.827
1093,126.5869140625,-43.88427734375,13.73291015625,-0.1669921875,0.32177734375,0.54150390625,2.094,-1.492,-1.827
1094,126.5869140625,-43.88427734375,13.73291015625,-0.1669921875,0.32177734375,0.54150390625,1.971,-1.783,-1.794
1095,119.32373046875,-34.0576171875,14.46533203125,-0.19287109375,0.357421875,0.47265625,1.971,-1.783,-1.794
1096,119.32373046875,-34.0576171875,14.46533203125,-0.19287109375,0.357421875,0.47265625,1.971,-1.783,-1.794
1097,119.32373046875,-34.0576171875,14.46533203125,-0.19287109375,0.357421875,0.47265625,1.971,-1.783,-1.794
1098,110.41259765625,-30.09033203125,13.916015625,-0.2236328125,0.388671875,0.42138671875,1.971,-1.783,-1.794
1099,110.41259765625,-30.09033203125,13.916015625,-0.2236328125,0.388671875,0.42138671875,1.854,-2.075,-1.723
1100,110.41259765625,-30.09033203125,13.916015625,-0.2236328125,0.388671875,0.42138671875,1.854,-2.075,-1.723
1101,110.41259765625,-30.09033203125,13.916015625,-0.2236328125,0.388671875,0.42138671875,1.854,-2.075,-1.723
1102,100.7080078125,-29.60205078125,12.939453125,-0.240234375,0.4208984375,0.37890625,1.854,-2.075,-1.723
1103,100.7080078125,-29.60205078125,12.939453125,-0.240234375,0.4208984375,0.37890625,1.854,-2.075,-1.723
1104,100.7080078125,-29.60205078125,12.939453125,-0.240234375,0.4208984375,0.37890625,1.748,-2.342,-1.646
1105,100.7080078125,-29.60205078125,12.939453125,-0.240234375,0.4208984375,0.37890625,1.748,-2.342,-1.646
1106,81.9091796875,-28.076171875,11.29150390625,-0.25341796875,0.46533203125,0.310546875,1.748,-2.342,-1.646
1107,81.9091796875,-28.076171875,11.29150390625,-0.25341796875,0.46533203125,0.310546875,1.748,-2.342,-1.646
1108,81.9091796875,-28.076171875,11.29150390625,-0.25341796875,0.46533203125,0.310546875,1.748,-2.342,-1.646
1109,65.36865234375,-24.0478515625,8.1787109375,-0.25341796875,0.51904296875,0.2705078125,1.748,-2.342,-1.646
1110,65.36865234375,-24.0478515625,8.1787109375,-0.25341796875,0.51904296875,0.2705078125,1.626,-2.619,-1.558
1111,65.36865234375,-24.0478515625,8.1787109375,-0.25341796875,0.51904296875,0.2705078125,1.626,-2.619,-1.558
1112,65.36865234375,-24.0478515625,8.1787109375,-0.25341796875,0.51904296875,0.2705078125,1.626,-2.619,-1.558
1113,48.7060546875,-15.9912109375,6.89697265625,-0.24755859375,0.54150390625,0.21826171875,1.626,-2.619,-1.558
1114,48.7060546875,-15.9912109375,6.89697265625,-0.24755859375,0.54150390625,0.21826171875,1.626,-2.619,-1.558
